time,ax,ay,az,aT
0.0030,0.2709,0.3952,-2.5195,2.565
0.0090,0.2122,0.1471,-2.5046,2.518
0.0090,0.2122,0.1471,-2.5046,2.518
0.0100,0.2122,0.1471,-2.5046,2.518
0.0100,0.0908,-0.0764,-2.3637,2.367
0.0270,-0.5097,-0.6013,-2.0372,2.184
0.0280,-0.5097,-0.6013,-2.0372,2.184
0.0280,-0.5097,-0.6013,-2.0372,2.184
0.0410,-0.6688,-0.5381,-2.3276,2.481
0.0410,-0.6688,-0.5381,-2.3276,2.481
0.0410,-0.6688,-0.5381,-2.3276,2.481
0.0590,0.0777,-0.3858,-2.4497,2.481
0.0590,0.0777,-0.3858,-2.4497,2.481
0.0600,0.0777,-0.3858,-2.4497,2.481
0.0810,0.9059,-0.1866,1.2588,1.562
0.0820,0.9059,-0.1866,1.2588,1.562
0.0820,0.9059,-0.1866,1.2588,1.562
0.0820,0.9059,-0.1866,1.2588,1.562
0.0830,1.1639,0.1148,1.6813,2.048
0.0920,1.1988,0.3136,2.0149,2.365
0.0920,1.1988,0.3136,2.0149,2.365
0.1080,0.6676,0.3042,1.1410,1.356
0.1080,0.6676,0.3042,1.1410,1.356
0.1250,0.6309,-0.5649,-0.1658,0.863
0.1250,0.7715,-1.0070,-0.2549,1.294
0.1260,0.7715,-1.0070,-0.2549,1.294
0.1260,0.7715,-1.0070,-0.2549,1.294
0.1420,0.7478,-2.2175,2.1187,3.157
0.1430,0.7478,-2.2175,2.1187,3.157
0.1430,0.7478,-2.2175,2.1187,3.157
0.1430,0.7478,-2.2175,2.1187,3.157
0.1650,0.5290,-3.9314,0.4075,3.988
0.1660,0.5290,-3.9314,0.4075,3.988
0.1660,0.5290,-3.9314,0.4075,3.988
0.1660,0.5290,-3.9314,0.4075,3.988
0.1740,0.6362,-3.9870,0.2004,4.042
0.1750,0.6362,-3.9870,0.2004,4.042
0.1910,1.1702,-3.4655,0.6752,3.720
0.1910,1.1702,-3.4655,0.6752,3.720
0.2070,0.5326,-3.2836,-0.8044,3.422
0.2080,0.5326,-3.2836,-0.8044,3.422
0.2080,0.5326,-3.2836,-0.8044,3.422
0.2080,0.5326,-3.2836,-0.8044,3.422
0.2260,0.4281,-2.5575,-1.1499,2.837
0.2300,0.4281,-2.5575,-1.1499,2.837
0.2310,0.5692,-2.1022,-1.2723,2.522
0.2310,0.5692,-2.1022,-1.2723,2.522
0.2410,0.6305,-1.9767,-1.5079,2.565
0.2410,0.6305,-1.9767,-1.5079,2.565
0.2600,1.2367,0.2492,1.0750,1.658
0.2600,1.2367,0.2492,1.0750,1.658
0.2610,1.2367,0.2492,1.0750,1.658
0.2610,1.2367,0.2492,1.0750,1.658
0.2750,2.5656,1.0497,0.3556,2.795
0.2750,2.5656,1.0497,0.3556,2.795
0.2760,2.5656,1.0497,0.3556,2.795
0.2910,2.9116,1.0929,-0.7345,3.195
0.2910,2.9116,1.0929,-0.7345,3.195
0.2920,2.9116,1.0929,-0.7345,3.195
0.3080,2.0198,0.9621,0.7720,2.367
0.3080,2.0198,0.9621,0.7720,2.367
0.3080,2.0198,0.9621,0.7720,2.367
0.3090,2.0198,0.9621,0.7720,2.367
0.3250,1.1713,0.6028,-1.3476,1.884
0.3250,1.1713,0.6028,-1.3476,1.884
0.3250,1.1713,0.6028,-1.3476,1.884
0.3420,0.5377,0.4919,-3.2235,3.305
0.3420,0.5377,0.4919,-3.2235,3.305
0.3430,0.5377,0.4919,-3.2235,3.305
0.3580,1.1775,-0.3327,-4.3558,4.524
0.3580,1.1775,-0.3327,-4.3558,4.524
0.3580,1.1775,-0.3327,-4.3558,4.524
0.3770,0.5419,-2.8629,-6.2363,6.883
0.3770,0.5419,-2.8629,-6.2363,6.883
0.3770,0.5419,-2.8629,-6.2363,6.883
0.3770,0.5419,-2.8629,-6.2363,6.883
0.3910,-1.1452,-4.1837,-8.3321,9.394
0.3920,-1.1452,-4.1837,-8.3321,9.394
0.3920,-1.1452,-4.1837,-8.3321,9.394
0.4080,-1.8117,-4.3894,-8.1886,9.466
0.4080,-1.8117,-4.3894,-8.1886,9.466
0.4080,-1.8117,-4.3894,-8.1886,9.466
0.4290,-1.1414,-5.0875,-7.2822,8.956
0.4290,-1.1414,-5.0875,-7.2822,8.956
0.4290,-1.1414,-5.0875,-7.2822,8.956
0.4290,-1.1414,-5.0875,-7.2822,8.956
0.4420,-1.5837,-5.0012,-5.4081,7.534
0.4430,-1.5837,-5.0012,-5.4081,7.534
0.4430,-1.5837,-5.0012,-5.4081,7.534
0.4600,-2.6909,-5.6200,-5.4276,8.263
0.4600,-2.6909,-5.6200,-5.4276,8.263
0.4600,-2.6909,-5.6200,-5.4276,8.263
0.4750,-3.3226,-6.9083,-7.3833,10.643
0.4750,-3.3226,-6.9083,-7.3833,10.643
0.4750,-3.3226,-6.9083,-7.3833,10.643
0.4910,-6.5785,-9.6490,-4.1248,12.385
0.4920,-6.5785,-9.6490,-4.1248,12.385
0.4920,-6.5785,-9.6490,-4.1248,12.385
0.5080,-6.3079,-11.1087,0.5786,12.788
0.5080,-6.3079,-11.1087,0.5786,12.788
0.5090,-6.3079,-11.1087,0.5786,12.788
0.5090,-6.3079,-11.1087,0.5786,12.788
0.5250,-4.2014,-10.7492,5.3316,12.713
0.5260,-3.4568,-10.3991,7.0709,13.042
0.5260,-3.4568,-10.3991,7.0709,13.042
0.5420,-1.5514,-9.6778,10.1856,14.136
0.5420,-1.5514,-9.6778,10.1856,14.136
0.5420,-1.5514,-9.6778,10.1856,14.136
0.5580,2.7542,-7.4464,11.0926,13.641
0.5580,2.7542,-7.4464,11.0926,13.641
0.5580,2.7542,-7.4464,11.0926,13.641
0.5770,4.2494,-6.8682,11.2396,13.840
0.5770,5.5016,-6.6470,11.2905,14.210
0.5780,5.5016,-6.6470,11.2905,14.210
0.5780,5.5016,-6.6470,11.2905,14.210
0.5920,11.3453,-4.4044,10.5766,16.124
0.5920,11.3453,-4.4044,10.5766,16.124
0.5920,11.3453,-4.4044,10.5766,16.124
0.6090,17.2707,-0.5554,9.9561,19.943
0.6090,17.2707,-0.5554,9.9561,19.943
0.6090,17.2707,-0.5554,9.9561,19.943
0.6250,21.1281,4.6628,9.0392,23.449
0.6260,21.1281,4.6628,9.0392,23.449
0.6260,21.1281,4.6628,9.0392,23.449
0.6410,22.4091,6.2797,8.0584,24.628
0.6420,22.4091,6.2797,8.0584,24.628
0.6420,22.4091,6.2797,8.0584,24.628
0.6420,22.4091,6.2797,8.0584,24.628
0.6590,21.5867,6.3745,7.4027,23.694
0.6600,21.1320,6.3276,6.5441,23.009
0.6600,21.1320,6.3276,6.5441,23.009
0.6770,18.1599,5.2589,2.6880,19.096
0.6770,18.1599,5.2589,2.6880,19.096
0.6770,18.1599,5.2589,2.6880,19.096
0.6770,18.1599,5.2589,2.6880,19.096
0.6910,14.2254,3.1965,0.5786,14.592
0.6920,14.2254,3.1965,0.5786,14.592
0.7080,10.8187,1.5091,-2.1193,11.127
0.7080,10.8187,1.5091,-2.1193,11.127
0.7080,10.8187,1.5091,-2.1193,11.127
0.7080,10.8187,1.5091,-2.1193,11.127
0.7250,8.4835,0.2966,-3.8583,9.324
0.7250,8.4835,0.2966,-3.8583,9.324
0.7250,8.4835,0.2966,-3.8583,9.324
0.7420,5.7603,0.7067,-4.1264,7.121
0.7430,5.5381,0.9975,-4.5035,7.207
0.7430,5.5381,0.9975,-4.5035,7.207
0.7600,3.4072,1.5610,-6.6746,7.655
0.7610,2.2951,1.5104,-7.4523,7.943
0.7610,2.2951,1.5104,-7.4523,7.943
0.7610,2.2951,1.5104,-7.4523,7.943
0.7770,-0.0611,1.1335,-7.1127,7.203
0.7770,-0.0611,1.1335,-7.1127,7.203
0.7780,-0.0611,1.1335,-7.1127,7.203
0.7920,-2.9256,-0.1860,-3.5887,4.634
0.7920,-2.9256,-0.1860,-3.5887,4.634
0.7920,-2.9256,-0.1860,-3.5887,4.634
0.8090,-6.7433,-1.7875,-3.0718,7.623
0.8090,-6.7433,-1.7875,-3.0718,7.623
0.8090,-6.7433,-1.7875,-3.0718,7.623
0.8250,-5.8163,-3.5286,-2.4014,7.214
0.8250,-5.8163,-3.5286,-2.4014,7.214
0.8250,-5.8163,-3.5286,-2.4014,7.214
0.8250,-5.8163,-3.5286,-2.4014,7.214
0.8410,-2.1192,-1.9695,-2.5777,3.875
0.8420,-0.7482,-1.3808,-2.1321,2.648
0.8420,-0.7482,-1.3808,-2.1321,2.648
0.8580,1.6720,-1.1887,-0.8257,2.211
0.8580,1.6720,-1.1887,-0.8257,2.211
0.8690,3.3829,-0.8344,0.2310,3.492
0.8800,5.7978,0.1799,1.4414,5.977
0.8800,6.9404,0.9445,2.1721,7.333
0.8810,6.9404,0.9445,2.1721,7.333
0.8810,6.9404,0.9445,2.1721,7.333
0.8910,8.2523,2.4538,3.5539,9.314
0.8920,8.2523,2.4538,3.5539,9.314
0.8920,8.2523,2.4538,3.5539,9.314
0.9140,7.2386,1.3973,6.0580,9.542
0.9140,7.2386,1.3973,6.0580,9.542
0.9150,7.2386,1.3973,6.0580,9.542
0.9150,7.2386,1.3973,6.0580,9.542
0.9280,2.2467,-1.6391,5.4150,6.087
0.9280,4.2770,-0.7148,8.2241,9.297
0.9420,8.4279,2.4644,14.8756,17.274
0.9420,8.4279,2.4644,14.8756,17.274
0.9430,10.1791,3.2202,18.5670,21.418
0.9430,10.1791,3.2202,18.5670,21.418
0.9590,9.8444,-1.1232,10.1764,14.203
0.9600,9.8444,-1.1232,10.1764,14.203
0.9780,-23.8667,-11.2877,-24.9766,36.344
0.9780,-23.8667,-11.2877,-24.9766,36.344
0.9780,-23.8667,-11.2877,-24.9766,36.344
0.9780,-23.8667,-11.2877,-24.9766,36.344
0.9920,-9.8152,-1.8974,-18.5643,21.085
0.9920,-9.8152,-1.8974,-18.5643,21.085
0.9930,-9.8152,-1.8974,-18.5643,21.085
1.0080,-2.8537,3.5192,-25.6574,26.054
1.0090,-2.8537,3.5192,-25.6574,26.054
1.0090,-2.8537,3.5192,-25.6574,26.054
1.0250,5.2357,3.8926,-7.2274,9.737
1.0260,5.2357,3.8926,-7.2274,9.737
1.0260,5.2357,3.8926,-7.2274,9.737
1.0260,5.2357,3.8926,-7.2274,9.737
1.0440,6.0295,3.8792,-1.9004,7.417
1.0440,1.4691,4.6146,2.7537,5.571
1.0450,1.4691,4.6146,2.7537,5.571
1.0600,-4.5665,2.3263,12.8725,13.855
1.0610,-4.5665,2.3263,12.8725,13.855
1.0610,-4.5665,2.3263,12.8725,13.855
1.0790,-2.2089,-1.4328,8.0225,8.443
1.0790,-2.2089,-1.4328,8.0225,8.443
1.0800,-2.2089,-1.4328,8.0225,8.443
1.0800,-2.2089,-1.4328,8.0225,8.443
1.0970,-2.5040,-0.8931,6.3223,6.858
1.0970,-2.5040,-0.8931,6.3223,6.858
1.0980,-2.2419,-1.0798,5.0210,5.604
1.0980,-2.2419,-1.0798,5.0210,5.604
1.1090,-0.8750,-1.2212,2.7679,3.149
1.1090,-0.8750,-1.2212,2.7679,3.149
1.1250,0.8605,-1.3084,2.7568,3.170
1.1250,0.8605,-1.3084,2.7568,3.170
1.1260,0.8605,-1.3084,2.7568,3.170
1.1420,0.7193,-1.7623,3.7869,4.238
1.1420,0.7193,-1.7623,3.7869,4.238
1.1420,0.7193,-1.7623,3.7869,4.238
1.1590,0.4016,-2.1056,2.7787,3.509
1.1600,0.1161,-2.0284,2.1272,2.942
1.1600,0.1161,-2.0284,2.1272,2.942
1.1600,0.1161,-2.0284,2.1272,2.942
1.1790,-1.6268,-2.8295,0.4440,3.294
1.1790,-1.8713,-2.6650,0.1012,3.258
1.1790,-1.8713,-2.6650,0.1012,3.258
1.1800,-1.8713,-2.6650,0.1012,3.258
1.1950,-0.2586,-2.0912,-0.1993,2.117
1.1960,-0.2586,-2.0912,-0.1993,2.117
1.2080,2.0674,-0.9279,0.0071,2.266
1.2090,2.0674,-0.9279,0.0071,2.266
1.2090,2.0674,-0.9279,0.0071,2.266
1.2260,3.3131,0.4353,1.7429,3.769
1.2260,3.3131,0.4353,1.7429,3.769
1.2260,3.7816,1.3674,1.6821,4.359
1.2420,1.1773,-1.2033,1.3083,2.132
1.2430,1.1773,-1.2033,1.3083,2.132
1.2430,1.1773,-1.2033,1.3083,2.132
1.2440,1.1773,-1.2033,1.3083,2.132
1.2590,0.3766,-4.7440,0.6473,4.803
1.2590,0.3766,-4.7440,0.6473,4.803
1.2590,0.3766,-4.7440,0.6473,4.803
1.2780,-0.3614,-1.6422,0.9360,1.924
1.2790,-0.3614,-1.6422,0.9360,1.924
1.2790,-0.3614,-1.6422,0.9360,1.924
1.2930,-0.1229,0.9902,-0.8762,1.328
1.2940,-2.0810,1.0376,-3.5278,4.225
1.2950,-2.0810,1.0376,-3.5278,4.225
1.2950,-2.0810,1.0376,-3.5278,4.225
1.3090,-4.1709,-6.2485,-9.8535,12.391
1.3090,-4.1709,-6.2485,-9.8535,12.391
1.3260,-1.1631,-5.7993,-8.8048,10.607
1.3270,-1.1631,-5.7993,-8.8048,10.607
1.3270,-0.0803,-4.1714,-7.4158,8.509
1.3280,-0.0803,-4.1714,-7.4158,8.509
1.3420,2.6578,-0.5077,-0.7021,2.795
1.3420,4.2034,1.1688,1.4214,4.589
1.3430,4.2034,1.1688,1.4214,4.589
1.3430,4.2034,1.1688,1.4214,4.589
1.3590,6.0994,3.3451,5.4681,8.848
1.3590,6.0994,3.3451,5.4681,8.848
1.3780,3.5219,-0.2495,2.1678,4.143
1.3780,3.5219,-0.2495,2.1678,4.143
1.3860,0.1511,-1.2533,-0.0914,1.266
1.3860,0.1511,-1.2533,-0.0914,1.266
1.3930,-0.7022,-1.2973,-0.3822,1.524
1.3930,-0.7022,-1.2973,-0.3822,1.524
1.3930,-0.7022,-1.2973,-0.3822,1.524
1.3950,-0.7022,-1.2973,-0.3822,1.524
1.4090,-1.1886,-1.1915,-3.2101,3.625
1.4090,-0.9424,-1.0216,-3.8829,4.124
1.4260,-0.9055,-1.4155,-2.7279,3.204
1.4260,-0.9055,-1.4155,-2.7279,3.204
1.4260,-0.9055,-1.4155,-2.7279,3.204
1.4260,-0.9055,-1.4155,-2.7279,3.204
1.4450,-0.5332,0.2659,-2.9344,2.994
1.4450,-0.5332,0.2659,-2.9344,2.994
1.4460,-0.5332,0.2659,-2.9344,2.994
1.4460,-0.4500,0.7553,-3.3084,3.423
1.4610,0.1042,1.3687,-4.4857,4.691
1.4630,0.3532,1.4127,-4.2107,4.455
1.4750,0.9628,2.0696,-2.2770,3.224
1.4760,0.9628,2.0696,-2.2770,3.224
1.4760,0.9628,2.0696,-2.2770,3.224
1.4760,0.9628,2.0696,-2.2770,3.224
1.4920,1.8181,3.0093,-0.1326,3.518
1.4920,1.8181,3.0093,-0.1326,3.518
1.5090,1.8449,2.7469,-2.4810,4.136
1.5090,1.8449,2.7469,-2.4810,4.136
1.5090,1.8449,2.7469,-2.4810,4.136
1.5100,1.8449,2.7469,-2.4810,4.136
1.5270,3.4517,0.7649,-11.3810,11.918
1.5280,3.4517,0.7649,-11.3810,11.918
1.5280,3.4517,0.7649,-11.3810,11.918
1.5290,3.4517,0.7649,-11.3810,11.918
1.5420,1.1264,-0.8491,-4.0523,4.291
1.5430,1.1264,-0.8491,-4.0523,4.291
1.5610,0.9633,2.1484,2.3540,3.329
1.5610,0.9633,2.1484,2.3540,3.329
1.5620,0.9633,2.1484,2.3540,3.329
1.5620,0.9633,2.1484,2.3540,3.329
1.5760,0.9617,3.6665,3.4237,5.108
1.5760,0.9617,3.6665,3.4237,5.108
1.5920,-0.1643,2.6672,2.6828,3.787
1.5920,-0.1643,2.6672,2.6828,3.787
1.5930,-0.1643,2.6672,2.6828,3.787
1.5930,-0.1643,2.6672,2.6828,3.787
1.6090,-1.0243,1.2507,3.0550,3.456
1.6090,-1.0243,1.2507,3.0550,3.456
1.6100,-1.0243,1.2507,3.0550,3.456
1.6100,-1.0243,1.2507,3.0550,3.456
1.6290,-0.2268,-0.0573,1.2393,1.261
1.6290,-0.2268,-0.0573,1.2393,1.261
1.6300,-0.2268,-0.0573,1.2393,1.261
1.6420,0.2693,-0.2985,0.1866,0.443
1.6430,0.2219,-0.3255,0.3299,0.514
1.6430,0.2219,-0.3255,0.3299,0.514
1.6590,-0.4481,0.0024,1.5803,1.643
1.6620,-0.5957,0.2993,1.7471,1.870
1.6780,-0.0725,1.4903,1.1212,1.866
1.6780,-0.0725,1.4903,1.1212,1.866
1.6780,-0.0725,1.4903,1.1212,1.866
1.6780,-0.0725,1.4903,1.1212,1.866
1.6930,1.9298,2.2126,1.3240,3.221
1.6940,2.6881,2.1496,1.7948,3.882
1.6940,2.6881,2.1496,1.7948,3.882
1.6940,2.6881,2.1496,1.7948,3.882
1.7090,2.5167,0.0821,4.9580,5.561
1.7090,2.5167,0.0821,4.9580,5.561
1.7260,-2.6619,-2.9240,6.9723,8.016
1.7260,-2.6619,-2.9240,6.9723,8.016
1.7260,-2.6619,-2.9240,6.9723,8.016
1.7270,-2.6619,-2.9240,6.9723,8.016
1.7430,-4.3874,-2.4286,2.3300,5.530
1.7430,-4.3874,-2.4286,2.3300,5.530
1.7590,-3.5392,-0.9944,-1.0731,3.830
1.7600,-3.5392,-0.9944,-1.0731,3.830
1.7600,-3.5392,-0.9944,-1.0731,3.830
1.7610,-3.5392,-0.9944,-1.0731,3.830
1.7800,-0.6189,-0.0999,0.7391,0.969
1.7800,-0.6189,-0.0999,0.7391,0.969
1.7810,0.7036,1.1279,0.6755,1.491
1.7810,0.7036,1.1279,0.6755,1.491
1.7950,3.0818,2.8173,-0.4268,4.197
1.7960,3.0818,2.8173,-0.4268,4.197
1.7960,3.0818,2.8173,-0.4268,4.197
1.8090,2.6321,2.4514,-1.7576,4.003
1.8100,2.6321,2.4514,-1.7576,4.003
1.8100,2.6321,2.4514,-1.7576,4.003
1.8260,1.2593,2.3423,-4.6369,5.345
1.8260,1.2593,2.3423,-4.6369,5.345
1.8260,1.2593,2.3423,-4.6369,5.345
1.8430,-1.1914,1.8463,-5.9982,6.388
1.8440,-1.1914,1.8463,-5.9982,6.388
1.8440,-1.1914,1.8463,-5.9982,6.388
1.8600,-1.9550,1.1807,-6.0646,6.480
1.8600,-1.9550,1.1807,-6.0646,6.480
1.8600,-1.9550,1.1807,-6.0646,6.480
1.8600,-1.9550,1.1807,-6.0646,6.480
1.8800,-2.3960,1.9036,-4.9468,5.817
1.8810,-2.3960,1.9036,-4.9468,5.817
1.8810,-2.6806,1.6686,-4.9098,5.838
1.8820,-2.6806,1.6686,-4.9098,5.838
1.9000,-4.5541,2.4061,-4.5677,6.884
1.9000,-4.5541,2.4061,-4.5677,6.884
1.9000,-4.5541,2.4061,-4.5677,6.884
1.9010,-4.5541,2.4061,-4.5677,6.884
1.9100,-4.9836,2.4467,-3.3536,6.486
1.9100,-4.9836,2.4467,-3.3536,6.486
1.9260,-4.2934,0.4791,0.5284,4.352
1.9260,-4.2934,0.4791,0.5284,4.352
1.9430,-0.4007,-0.6714,4.4851,4.553
1.9430,-0.4007,-0.6714,4.4851,4.553
1.9440,1.2938,0.8501,3.8343,4.135
1.9450,1.2938,0.8501,3.8343,4.135
1.9600,5.5183,8.1418,0.5758,9.853
1.9610,5.5183,8.1418,0.5758,9.853
1.9800,2.8492,1.8551,-3.0263,4.552
1.9800,2.8492,1.8551,-3.0263,4.552
1.9800,2.8492,1.8551,-3.0263,4.552
1.9810,2.8492,1.8551,-3.0263,4.552
1.9960,3.3436,-1.8913,-5.1303,6.409
1.9970,3.3436,-1.8913,-5.1303,6.409
1.9970,3.3436,-1.8913,-5.1303,6.409
1.9970,3.3436,-1.8913,-5.1303,6.409
2.0120,2.6223,-5.9337,-4.1534,7.703
2.0130,2.6223,-5.9337,-4.1534,7.703
2.0270,2.1467,-4.0620,-2.7652,5.362
2.0280,2.1467,-4.0620,-2.7652,5.362
2.0280,2.1467,-4.0620,-2.7652,5.362
2.0280,2.1467,-4.0620,-2.7652,5.362
2.0430,1.2389,0.7003,-1.7170,2.230
2.0430,1.2389,0.7003,-1.7170,2.230
2.0600,-1.1145,4.4613,-4.9648,6.767
2.0610,-1.1145,4.4613,-4.9648,6.767
2.0610,-1.1145,4.4613,-4.9648,6.767
2.0610,-1.1145,4.4613,-4.9648,6.767
2.0790,-2.0080,2.1938,-9.4134,9.872
2.0790,-1.6990,1.6016,-11.4846,11.720
2.0790,-1.6990,1.6016,-11.4846,11.720
2.0790,-1.6990,1.6016,-11.4846,11.720
2.0930,0.5526,-1.8634,-17.1776,17.287
2.0940,0.5526,-1.8634,-17.1776,17.287
2.1090,4.9611,-1.9356,-16.7894,17.614
2.1090,4.9611,-1.9356,-16.7894,17.614
2.1100,4.9611,-1.9356,-16.7894,17.614
2.1100,4.9611,-1.9356,-16.7894,17.614
2.1270,7.8470,2.0420,0.0483,8.108
2.1270,7.8470,2.0420,0.0483,8.108
2.1270,7.8470,2.0420,0.0483,8.108
2.1280,7.8470,2.0420,0.0483,8.108
2.1430,4.9508,0.0372,35.4814,35.825
2.1440,4.9508,0.0372,35.4814,35.825
2.1630,8.2128,10.2509,4.9577,14.040
2.1640,8.2128,10.2509,4.9577,14.040
2.1640,8.2128,10.2509,4.9577,14.040
2.1640,8.2128,10.2509,4.9577,14.040
2.1760,6.0343,5.8430,-15.8712,17.957
2.1760,6.0343,5.8430,-15.8712,17.957
2.1930,3.1705,-0.8582,-18.4607,18.751
2.1940,2.1632,-3.1320,-17.2978,17.712
2.1940,2.1632,-3.1320,-17.2978,17.712
2.1940,2.1632,-3.1320,-17.2978,17.712
2.2100,-0.1804,-8.2203,-5.1063,9.679
2.2100,-0.1804,-8.2203,-5.1063,9.679
2.2100,-0.1804,-8.2203,-5.1063,9.679
2.2110,-0.1804,-8.2203,-5.1063,9.679
2.2270,-3.1967,-14.9061,16.3165,22.330
2.2280,-3.1967,-14.9061,16.3165,22.330
2.2440,-0.6935,-7.1585,-1.7132,7.393
2.2450,-0.6935,-7.1585,-1.7132,7.393
2.2450,-0.6935,-7.1585,-1.7132,7.393
2.2450,-0.6935,-7.1585,-1.7132,7.393
2.2610,-1.2487,-3.7914,-7.2019,8.234
2.2610,-1.2487,-3.7914,-7.2019,8.234
2.2610,-1.5868,-3.5421,-7.3737,8.333
2.2800,-2.0808,-3.2889,-5.1709,6.472
2.2810,-2.4341,-3.6295,-3.8074,5.796
2.2810,-2.4341,-3.6295,-3.8074,5.796
2.2990,-2.9900,-4.5464,1.2873,5.592
2.2990,-2.9900,-4.5464,1.2873,5.592
2.2990,-2.9900,-4.5464,1.2873,5.592
2.2990,-2.9900,-4.5464,1.2873,5.592
2.3090,-3.0896,-4.2771,3.4994,6.331
2.3100,-3.0642,-4.1173,3.4697,6.195
2.3270,-2.4826,-4.3570,0.9104,5.097
2.3270,-2.4826,-4.3570,0.9104,5.097
2.3270,-2.4826,-4.3570,0.9104,5.097
2.3270,-2.4826,-4.3570,0.9104,5.097
2.3430,-1.8404,-4.5976,-0.2216,4.957
2.3440,-1.5982,-5.0575,-0.1880,5.307
2.3440,-1.5982,-5.0575,-0.1880,5.307
2.3600,-0.6025,-7.6016,1.4808,7.768
2.3610,-0.6025,-7.6016,1.4808,7.768
2.3610,-0.6025,-7.6016,1.4808,7.768
2.3790,-0.5667,-9.5991,2.8649,10.034
2.3790,-0.5667,-9.5991,2.8649,10.034
2.3800,-0.5667,-9.5991,2.8649,10.034
2.3800,-0.5667,-9.5991,2.8649,10.034
2.3930,0.1044,-6.7295,4.3806,8.030
2.3940,0.1044,-6.7295,4.3806,8.030
2.4100,0.1198,-7.5136,4.2659,8.641
2.4110,0.0751,-8.4112,4.2318,9.416
2.4210,-0.1758,-9.6167,4.4475,10.597
2.4210,-0.1758,-9.6167,4.4475,10.597
2.4270,-0.9423,-10.6459,5.3895,11.969
2.4270,-0.9423,-10.6459,5.3895,11.969
2.4270,-0.9423,-10.6459,5.3895,11.969
2.4430,-4.0350,-8.6657,6.7545,11.705
2.4440,-4.0350,-8.6657,6.7545,11.705
2.4440,-4.0350,-8.6657,6.7545,11.705
2.4600,-5.4396,-8.4091,6.7731,12.090
2.4600,-5.4396,-8.4091,6.7731,12.090
2.4600,-5.4396,-8.4091,6.7731,12.090
2.4780,-6.4346,-8.1296,3.9607,11.099
2.4780,-6.2955,-7.8919,2.9733,10.524
2.4790,-6.2955,-7.8919,2.9733,10.524
2.4790,-6.2955,-7.8919,2.9733,10.524
2.4940,-5.5768,-8.0744,-0.2815,9.817
2.4950,-5.5768,-8.0744,-0.2815,9.817
2.4950,-5.5768,-8.0744,-0.2815,9.817
2.5100,-2.6078,-5.2774,-6.3244,8.640
2.5100,-2.6078,-5.2774,-6.3244,8.640
2.5100,-2.6078,-5.2774,-6.3244,8.640
2.5270,0.5654,-3.2422,-13.8807,14.266
2.5280,0.5654,-3.2422,-13.8807,14.266
2.5280,0.5654,-3.2422,-13.8807,14.266
2.5280,0.5654,-3.2422,-13.8807,14.266
2.5450,1.8812,-1.4319,-13.3947,13.602
2.5460,2.6985,-0.8195,-12.2202,12.541
2.5470,2.6985,-0.8195,-12.2202,12.541
2.5600,4.3677,0.3759,-3.8996,5.867
2.5600,4.3677,0.3759,-3.8996,5.867
2.5600,4.3677,0.3759,-3.8996,5.867
2.5790,1.1877,1.0367,11.2269,11.337
2.5790,1.1877,1.0367,11.2269,11.337
2.5790,1.1877,1.0367,11.2269,11.337
2.5790,1.1877,1.0367,11.2269,11.337
2.5970,3.9183,-0.2411,6.7320,7.793
2.5970,3.9183,-0.2411,6.7320,7.793
2.5990,3.9183,-0.2411,6.7320,7.793
2.6120,5.2179,-1.9250,-7.2722,9.155
2.6120,4.3502,-1.6705,-8.4897,9.685
2.6130,4.3502,-1.6705,-8.4897,9.685
2.6280,1.2957,-1.5372,3.3978,3.948
2.6280,1.2957,-1.5372,3.3978,3.948
2.6280,1.2957,-1.5372,3.3978,3.948
2.6440,3.3954,-1.1469,-1.1952,3.778
2.6450,3.3954,-1.1469,-1.1952,3.778
2.6450,3.3954,-1.1469,-1.1952,3.778
2.6600,7.9549,1.3499,-6.9979,10.681
2.6600,8.7425,1.9917,-6.8366,11.275
2.6600,8.7425,1.9917,-6.8366,11.275
2.6780,6.6244,2.5429,-4.6310,8.473
2.6790,6.6244,2.5429,-4.6310,8.473
2.6790,6.6244,2.5429,-4.6310,8.473
2.6790,6.6244,2.5429,-4.6310,8.473
2.6940,3.8003,2.7026,-3.9004,6.079
2.6960,3.4493,2.8776,-4.0230,6.030
2.6960,3.4493,2.8776,-4.0230,6.030
2.7100,3.0041,3.2775,-3.6599,5.759
2.7110,3.0041,3.2775,-3.6599,5.759
2.7110,3.0041,3.2775,-3.6599,5.759
2.7270,3.3694,3.2898,-3.5031,5.869
2.7270,3.3694,3.2898,-3.5031,5.869
2.7280,3.3694,3.2898,-3.5031,5.869
2.7440,4.7340,3.4406,-3.4034,6.770
2.7440,4.7340,3.4406,-3.4034,6.770
2.7440,4.7340,3.4406,-3.4034,6.770
2.7450,4.7340,3.4406,-3.4034,6.770
2.7600,5.2382,3.2540,-2.8086,6.776
2.7610,5.2382,3.2540,-2.8086,6.776
2.7620,5.3387,3.3827,-2.6408,6.850
2.7830,5.0289,4.7349,-2.9531,7.512
2.7830,5.0289,4.7349,-2.9531,7.512
2.7830,5.0289,4.7349,-2.9531,7.512
2.7840,5.0289,4.7349,-2.9531,7.512
2.7930,4.6286,5.7947,-3.3127,8.123
2.7940,4.6286,5.7947,-3.3127,8.123
2.8100,2.5076,7.4605,-3.7852,8.734
2.8110,2.5076,7.4605,-3.7852,8.734
2.8110,2.5076,7.4605,-3.7852,8.734
2.8280,1.0631,7.8914,-4.1770,8.992
2.8280,1.0631,7.8914,-4.1770,8.992
2.8280,1.0631,7.8914,-4.1770,8.992
2.8290,1.0631,7.8914,-4.1770,8.992
2.8440,0.3857,7.7711,-6.8093,10.340
2.8440,0.3857,7.7711,-6.8093,10.340
2.8600,2.0345,6.4191,-6.3794,9.276
2.8600,2.0345,6.4191,-6.3794,9.276
2.8610,2.0345,6.4191,-6.3794,9.276
2.8610,2.0345,6.4191,-6.3794,9.276
2.8790,3.4086,5.1013,1.2288,6.257
2.8790,3.4086,5.1013,1.2288,6.257
2.8790,3.4086,5.1013,1.2288,6.257
2.8800,3.4086,5.1013,1.2288,6.257
2.8940,1.2633,1.3137,2.7116,3.267
2.8940,1.2633,1.3137,2.7116,3.267
2.9110,0.9933,-5.2937,2.0497,5.763
2.9120,0.3070,-8.0997,1.4910,8.241
2.9120,0.3070,-8.0997,1.4910,8.241
2.9120,0.3070,-8.0997,1.4910,8.241
2.9270,-7.8667,-16.5941,-2.5082,18.535
2.9360,-10.5970,-18.9479,-4.3321,22.138
2.9360,-10.5970,-18.9479,-4.3321,22.138
2.9360,-10.5970,-18.9479,-4.3321,22.138
2.9440,-12.3599,-20.8733,-3.8185,24.557
2.9440,-12.3599,-20.8733,-3.8185,24.557
2.9600,-1.6114,-6.8882,1.9679,7.343
2.9610,-1.6114,-6.8882,1.9679,7.343
2.9610,-1.6114,-6.8882,1.9679,7.343
2.9610,-1.6114,-6.8882,1.9679,7.343
2.9790,4.6367,4.1107,-2.3958,6.644
2.9790,4.6367,4.1107,-2.3958,6.644
2.9790,4.6367,4.1107,-2.3958,6.644
2.9790,4.6367,4.1107,-2.3958,6.644
2.9940,6.7371,6.1108,-1.7251,9.258
2.9940,6.7371,6.1108,-1.7251,9.258
3.0110,6.5539,5.9683,-0.2487,8.868
3.0110,6.5539,5.9683,-0.2487,8.868
3.0110,6.5539,5.9683,-0.2487,8.868
3.0120,6.5539,5.9683,-0.2487,8.868
3.0280,4.6350,3.8578,0.5119,6.052
3.0280,4.6350,3.8578,0.5119,6.052
3.0440,3.1373,0.9408,-0.9265,3.404
3.0440,3.1373,0.9408,-0.9265,3.404
3.0440,3.1373,0.9408,-0.9265,3.404
3.0450,2.7495,-0.2332,-1.6093,3.194
3.0610,2.8103,-2.9204,-2.8507,4.955
3.0620,2.8103,-2.9204,-2.8507,4.955
3.0620,2.8103,-2.9204,-2.8507,4.955
3.0620,2.8103,-2.9204,-2.8507,4.955
3.0820,1.5287,-8.9346,-4.7640,10.240
3.0850,1.0205,-8.9830,-4.0204,9.894
3.0860,1.0205,-8.9830,-4.0204,9.894
3.0860,1.0205,-8.9830,-4.0204,9.894
3.0990,-0.3638,-6.7114,-0.8097,6.770
3.0990,-0.3638,-6.7114,-0.8097,6.770
3.1100,-0.2908,-3.8139,0.4836,3.855
3.1100,-0.2908,-3.8139,0.4836,3.855
3.1280,0.8511,0.7074,0.1133,1.112
3.1280,0.8511,0.7074,0.1133,1.112
3.1280,0.8511,0.7074,0.1133,1.112
3.1280,0.8511,0.7074,0.1133,1.112
3.1440,0.9426,2.3786,-0.8532,2.697
3.1440,0.9426,2.3786,-0.8532,2.697
3.1440,0.9426,2.3786,-0.8532,2.697
3.1440,0.9426,2.3786,-0.8532,2.697
3.1610,0.3493,2.8392,-0.4218,2.892
3.1610,0.0654,2.7186,-0.2033,2.727
3.1800,-0.8306,1.9937,0.2291,2.172
3.1800,-0.8306,1.9937,0.2291,2.172
3.1810,-0.8306,1.9937,0.2291,2.172
3.1810,-0.8306,1.9937,0.2291,2.172
3.1950,-1.2692,1.2807,0.4252,1.853
3.1960,-1.2153,1.1224,0.3864,1.699
3.1960,-1.2153,1.1224,0.3864,1.699
3.1960,-1.2153,1.1224,0.3864,1.699
3.2110,-0.5418,0.7293,0.1239,0.917
3.2110,-0.5418,0.7293,0.1239,0.917
3.2270,0.2836,0.6974,-0.1931,0.777
3.2270,0.2836,0.6974,-0.1931,0.777
3.2280,0.2836,0.6974,-0.1931,0.777
3.2280,0.2836,0.6974,-0.1931,0.777
3.2440,0.9353,1.3934,-0.3434,1.713
3.2440,0.9353,1.3934,-0.3434,1.713
3.2620,0.9491,2.1437,-0.5877,2.417
3.2630,0.9491,2.1437,-0.5877,2.417
3.2630,0.8580,2.3337,-0.7039,2.584
3.2640,0.8580,2.3337,-0.7039,2.584
3.2790,0.6187,2.9521,-0.9357,3.158
3.2800,0.6187,2.9521,-0.9357,3.158
3.2800,0.6187,2.9521,-0.9357,3.158
3.2800,0.6187,2.9521,-0.9357,3.158
3.2940,0.1452,3.1601,-1.1049,3.351
3.2940,0.1452,3.1601,-1.1049,3.351
3.3110,-1.0151,2.3765,-1.5091,2.993
3.3110,-1.0151,2.3765,-1.5091,2.993
3.3110,-1.0151,2.3765,-1.5091,2.993
3.3110,-1.0151,2.3765,-1.5091,2.993
3.3270,-1.7736,1.8884,-1.3149,2.905
3.3280,-1.7736,1.8884,-1.3149,2.905
3.3280,-1.7736,1.8884,-1.3149,2.905
3.3450,-2.3923,0.9490,-0.5621,2.634
3.3450,-2.3923,0.9490,-0.5621,2.634
3.3460,-2.3923,0.9490,-0.5621,2.634
3.3610,-2.0846,0.3693,-0.2708,2.134
3.3620,-2.0846,0.3693,-0.2708,2.134
3.3630,-2.0846,0.3693,-0.2708,2.134
3.3630,-1.9686,0.1882,-0.4070,2.019
3.3800,-1.9409,-0.0289,-0.2588,1.958
3.3810,-1.9409,-0.0289,-0.2588,1.958
3.3810,-1.9409,-0.0289,-0.2588,1.958
3.3820,-1.9409,-0.0289,-0.2588,1.958
3.3990,-2.2151,-0.1869,1.3608,2.606
3.4000,-2.2151,-0.1869,1.3608,2.606
3.4110,-3.0860,-0.3172,0.9940,3.258
3.4110,-3.0860,-0.3172,0.9940,3.258
3.4110,-3.0860,-0.3172,0.9940,3.258
3.4110,-3.5817,-0.3491,0.7116,3.668
3.4270,-4.3560,-0.3424,0.2582,4.377
3.4270,-4.3560,-0.3424,0.2582,4.377
3.4450,-4.5728,-0.4034,0.1508,4.593
3.4550,-3.5920,-0.8907,1.0838,3.856
3.4550,-3.5920,-0.8907,1.0838,3.856
3.4550,-3.5920,-0.8907,1.0838,3.856
3.4620,-3.2597,-1.1146,1.2220,3.655
3.4630,-3.2597,-1.1146,1.2220,3.655
3.4790,-2.6615,-2.0828,1.4967,3.696
3.4810,-2.5491,-2.4590,1.5314,3.859
3.4820,-2.5491,-2.4590,1.5314,3.859
3.4820,-2.5491,-2.4590,1.5314,3.859
3.4950,-2.3934,-3.7262,1.2963,4.614
3.4950,-2.3934,-3.7262,1.2963,4.614
3.4950,-2.3934,-3.7262,1.2963,4.614
3.4950,-2.3934,-3.7262,1.2963,4.614
3.5110,-2.5936,-4.6416,0.2830,5.325
3.5110,-2.5936,-4.6416,0.2830,5.325
3.5280,-3.1471,-5.3494,-0.7337,6.250
3.5280,-3.4135,-5.5586,-1.0534,6.608
3.5280,-3.4135,-5.5586,-1.0534,6.608
3.5290,-3.4135,-5.5586,-1.0534,6.608
3.5440,-3.7509,-5.4881,-1.5383,6.823
3.5440,-3.7509,-5.4881,-1.5383,6.823
3.5620,-1.9251,-2.1009,0.6353,2.919
3.5620,-1.9251,-2.1009,0.6353,2.919
3.5630,-1.9251,-2.1009,0.6353,2.919
3.5630,-1.9251,-2.1009,0.6353,2.919
3.5810,-1.1374,-1.0831,3.0568,3.437
3.5810,-1.1068,-0.9010,3.6126,3.884
3.5810,-1.1068,-0.9010,3.6126,3.884
3.5820,-1.1068,-0.9010,3.6126,3.884
3.5970,-1.6865,-0.7914,4.4562,4.830
3.5980,-1.6865,-0.7914,4.4562,4.830
3.5980,-1.6865,-0.7914,4.4562,4.830
3.6110,-2.7251,-1.2129,3.9694,4.965
3.6110,-2.7251,-1.2129,3.9694,4.965
3.6110,-2.7251,-1.2129,3.9694,4.965
3.6280,-3.2761,-1.9239,1.9988,4.293
3.6280,-3.1092,-2.0673,1.0744,3.885
3.6280,-3.1092,-2.0673,1.0744,3.885
3.6450,-2.0805,-1.9960,-1.7842,3.391
3.6450,-2.0805,-1.9960,-1.7842,3.391
3.6450,-2.0805,-1.9960,-1.7842,3.391
3.6620,-1.2883,-1.4413,-4.7901,5.165
3.6620,-1.2883,-1.4413,-4.7901,5.165
3.6620,-1.2883,-1.4413,-4.7901,5.165
3.6620,-1.2883,-1.4413,-4.7901,5.165
3.6820,-3.9542,-2.2255,-7.1923,8.504
3.6830,-3.9542,-2.2255,-7.1923,8.504
3.6830,-3.9542,-2.2255,-7.1923,8.504
3.6840,-3.9542,-2.2255,-7.1923,8.504
3.7000,-8.4653,-3.7142,-1.1841,9.320
3.7000,-9.8899,-4.1860,2.4930,11.025
3.7010,-9.8899,-4.1860,2.4930,11.025
3.7110,-9.0909,-4.0853,4.7893,11.058
3.7110,-9.0909,-4.0853,4.7893,11.058
3.7270,0.3304,-2.7331,3.3185,4.312
3.7280,0.3304,-2.7331,3.3185,4.312
3.7280,0.3304,-2.7331,3.3185,4.312
3.7450,4.5209,-3.1838,-1.0280,5.624
3.7450,4.5209,-3.1838,-1.0280,5.624
3.7460,4.5209,-3.1838,-1.0280,5.624
3.7610,5.3716,-1.9279,-0.3650,5.719
3.7620,5.3716,-1.9279,-0.3650,5.719
3.7630,5.3716,-1.9279,-0.3650,5.719
3.7630,5.3716,-1.9279,-0.3650,5.719
3.7790,5.0058,0.0540,-1.1790,5.143
3.7790,5.0058,0.0540,-1.1790,5.143
3.7800,5.0058,0.0540,-1.1790,5.143
3.7950,3.8292,0.6892,-0.6815,3.950
3.7950,3.8292,0.6892,-0.6815,3.950
3.7950,3.8292,0.6892,-0.6815,3.950
3.8110,4.0707,0.2561,0.3065,4.090
3.8110,4.0707,0.2561,0.3065,4.090
3.8110,4.0707,0.2561,0.3065,4.090
3.8280,6.2794,0.1025,-1.6997,6.506
3.8280,6.2794,0.1025,-1.6997,6.506
3.8290,6.2794,0.1025,-1.6997,6.506
3.8290,6.2794,0.1025,-1.6997,6.506
3.8460,7.0954,0.4318,-3.7620,8.043
3.8470,7.0954,0.4318,-3.7620,8.043
3.8470,7.0954,0.4318,-3.7620,8.043
3.8630,6.0143,1.1881,-3.7243,7.173
3.8630,6.0143,1.1881,-3.7243,7.173
3.8630,6.0143,1.1881,-3.7243,7.173
3.8830,4.6671,2.3288,-2.3514,5.721
3.8860,4.6671,2.3288,-2.3514,5.721
3.8880,4.4331,2.6115,-2.0703,5.546
3.8880,4.2676,2.8411,-1.8715,5.458
3.9020,4.2715,3.0962,-1.5600,5.501
3.9020,4.2715,3.0962,-1.5600,5.501
3.9020,4.2715,3.0962,-1.5600,5.501
3.9030,4.2715,3.0962,-1.5600,5.501
3.9110,4.3961,3.0447,-1.4630,5.544
3.9120,4.3961,3.0447,-1.4630,5.544
3.9280,4.7676,1.6463,-1.5863,5.287
3.9280,4.7676,1.6463,-1.5863,5.287
3.9280,4.7676,1.6463,-1.5863,5.287
3.9450,4.5506,2.0816,-1.5650,5.243
3.9460,4.4932,2.3857,-1.5010,5.304
3.9460,4.4932,2.3857,-1.5010,5.304
3.9610,4.5128,3.2426,-1.5490,5.769
3.9730,4.3052,3.7423,-1.7437,5.965
3.9730,4.3052,3.7423,-1.7437,5.965
3.9740,4.3052,3.7423,-1.7437,5.965
3.9810,3.9093,4.3745,-2.1301,6.241
3.9820,3.9093,4.3745,-2.1301,6.241
3.9820,3.9093,4.3745,-2.1301,6.241
3.9940,2.9972,5.5887,-3.2640,7.132
3.9950,2.9972,5.5887,-3.2640,7.132
4.0110,2.2369,6.6614,-4.3460,8.262
4.0120,2.2369,6.6614,-4.3460,8.262
4.0120,2.2369,6.6614,-4.3460,8.262
4.0120,2.2369,6.6614,-4.3460,8.262
4.0280,2.1529,6.9507,-4.9120,8.779
4.0290,2.1529,6.9507,-4.9120,8.779
4.0290,2.1529,6.9507,-4.9120,8.779
4.0450,2.9385,5.8444,-4.2771,7.816
4.0460,2.9385,5.8444,-4.2771,7.816
4.0460,2.9385,5.8444,-4.2771,7.816
4.0620,1.5496,2.9440,2.6385,4.246
4.0630,1.5496,2.9440,2.6385,4.246
4.0630,1.5496,2.9440,2.6385,4.246
4.0630,1.5496,2.9440,2.6385,4.246
4.0810,1.0495,-1.7834,1.2969,2.442
4.0820,0.7286,-4.1706,-2.1321,4.740
4.0820,0.7286,-4.1706,-2.1321,4.740
4.0990,-3.6554,-10.3518,-6.6679,12.845
4.0990,-3.6554,-10.3518,-6.6679,12.845
4.0990,-3.6554,-10.3518,-6.6679,12.845
4.0990,-3.6554,-10.3518,-6.6679,12.845
4.1110,-11.2195,-17.6907,-4.4725,21.421
4.1120,-11.2195,-17.6907,-4.4725,21.421
4.1300,-11.9615,-17.0066,2.5528,20.948
4.1300,-11.9615,-17.0066,2.5528,20.948
4.1310,-11.9615,-17.0066,2.5528,20.948
4.1310,-11.9615,-17.0066,2.5528,20.948
4.1470,-4.7387,-8.0669,3.6346,10.037
4.1470,-4.7387,-8.0669,3.6346,10.037
4.1480,-4.7387,-8.0669,3.6346,10.037
4.1630,4.9239,2.2648,-0.7304,5.469
4.1640,4.9239,2.2648,-0.7304,5.469
4.1640,4.9239,2.2648,-0.7304,5.469
4.1810,7.2915,2.3176,0.4379,7.663
4.1810,7.2915,2.3176,0.4379,7.663
4.1810,7.2915,2.3176,0.4379,7.663
4.1810,7.2915,2.3176,0.4379,7.663
4.1950,7.3106,1.8163,0.7919,7.574
4.1960,7.0197,1.7098,0.9120,7.282
4.2110,5.8678,1.2522,0.9615,6.076
4.2120,5.8678,1.2522,0.9615,6.076
4.2120,5.8678,1.2522,0.9615,6.076
4.2120,5.8678,1.2522,0.9615,6.076
4.2280,4.7532,0.3122,0.4833,4.788
4.2280,4.7532,0.3122,0.4833,4.788
4.2290,4.7532,0.3122,0.4833,4.788
4.2460,2.8232,-3.1997,-0.7590,4.334
4.2470,2.8232,-3.1997,-0.7590,4.334
4.2470,2.8232,-3.1997,-0.7590,4.334
4.2620,1.6376,-4.9983,-1.1237,5.378
4.2620,1.6376,-4.9983,-1.1237,5.378
4.2630,1.6376,-4.9983,-1.1237,5.378
4.2810,1.1705,-2.9103,-1.7156,3.575
4.2810,1.1705,-2.9103,-1.7156,3.575
4.2880,1.0382,-2.0329,-1.9282,2.988
4.2910,0.9285,-1.1759,-2.0318,2.524
4.2970,0.8333,-0.3626,-1.9643,2.164
4.2970,0.7040,0.3905,-1.7684,1.943
4.2970,0.7040,0.3905,-1.7684,1.943
4.3120,-0.0680,2.1737,-0.4157,2.214
4.3120,-0.0680,2.1737,-0.4157,2.214
4.3120,-0.0680,2.1737,-0.4157,2.214
4.3290,-1.4547,3.5164,1.1669,3.980
4.3290,-1.4547,3.5164,1.1669,3.980
4.3290,-1.4547,3.5164,1.1669,3.980
4.3460,-3.4181,3.4164,0.1074,4.834
4.3470,-3.4181,3.4164,0.1074,4.834
4.3470,-3.4181,3.4164,0.1074,4.834
4.3470,-3.4181,3.4164,0.1074,4.834
4.3630,-4.0960,2.7770,-0.9916,5.047
4.3630,-4.0960,2.7770,-0.9916,5.047
4.3640,-4.0960,2.7770,-0.9916,5.047
4.3830,-4.0516,2.5104,-0.3702,4.781
4.3840,-4.0516,2.5104,-0.3702,4.781
4.3840,-4.0516,2.5104,-0.3702,4.781
4.3980,-3.4908,2.4119,0.8001,4.318
4.3980,-3.0722,2.3204,0.8850,3.950
4.3980,-3.0722,2.3204,0.8850,3.950
4.3990,-3.0722,2.3204,0.8850,3.950
4.4130,-2.0107,2.3514,0.7569,3.185
4.4130,-1.5533,2.5338,0.7074,3.055
4.4290,-0.8244,2.8570,0.3282,2.992
4.4290,-0.8244,2.8570,0.3282,2.992
4.4290,-0.8244,2.8570,0.3282,2.992
4.4290,-0.8244,2.8570,0.3282,2.992
4.4460,-1.2112,2.4768,-0.6329,2.829
4.4470,-1.2112,2.4768,-0.6329,2.829
4.4620,-1.9529,1.5028,-1.2073,2.744
4.4630,-1.9529,1.5028,-1.2073,2.744
4.4630,-1.9529,1.5028,-1.2073,2.744
4.4630,-1.9529,1.5028,-1.2073,2.744
4.4820,-2.0620,0.3229,0.8201,2.242
4.4990,-2.0026,0.3575,0.1522,2.040
4.5000,-2.0026,0.3575,0.1522,2.040
4.5000,-2.0026,0.3575,0.1522,2.040
4.5050,-2.0026,0.3575,0.1522,2.040
4.5060,-2.0026,0.3575,0.1522,2.040
4.5060,-2.0026,0.3575,0.1522,2.040
4.5060,-2.0026,0.3575,0.1522,2.040
4.5120,-1.8447,0.5637,-0.1327,1.933
4.5120,-1.8447,0.5637,-0.1327,1.933
4.5280,-1.8376,1.1082,-0.7639,2.278
4.5280,-1.8376,1.1082,-0.7639,2.278
4.5450,-2.4029,0.4242,0.6200,2.518
4.5460,-2.4029,0.4242,0.6200,2.518
4.5460,-2.4029,0.4242,0.6200,2.518
4.5460,-2.4029,0.4242,0.6200,2.518
4.5620,-3.4672,-0.3579,0.6522,3.546
4.5630,-3.9190,-0.5070,0.5031,3.984
4.5630,-3.9190,-0.5070,0.5031,3.984
4.5810,-5.4100,0.1814,-0.2101,5.417
4.5820,-5.4100,0.1814,-0.2101,5.417
4.5820,-5.4100,0.1814,-0.2101,5.417
4.5990,-5.2688,0.1550,-0.0068,5.271
4.5990,-5.2688,0.1550,-0.0068,5.271
4.5990,-5.2688,0.1550,-0.0068,5.271
4.6000,-4.9219,-0.0288,0.2440,4.928
4.6110,-4.0234,-0.6755,0.8836,4.174
4.6120,-4.0234,-0.6755,0.8836,4.174
4.6280,-3.0523,-1.4771,1.3985,3.668
4.6290,-3.0523,-1.4771,1.3985,3.668
4.6290,-3.0523,-1.4771,1.3985,3.668
4.6290,-3.0523,-1.4771,1.3985,3.668
4.6460,-1.8226,-3.4402,0.7743,3.969
4.6460,-1.8226,-3.4402,0.7743,3.969
4.6630,-1.8455,-5.5260,0.2573,5.832
4.6640,-1.8244,-6.3697,0.2193,6.629
4.6650,-1.8244,-6.3697,0.2193,6.629
4.6650,-1.8244,-6.3697,0.2193,6.629
4.6790,-1.1625,-9.1902,0.3709,9.271
4.6800,-1.1625,-9.1902,0.3709,9.271
4.6800,-1.1625,-9.1902,0.3709,9.271
4.6800,-1.1625,-9.1902,0.3709,9.271
4.6990,2.0841,-9.7183,3.0141,10.386
4.7010,2.0841,-9.7183,3.0141,10.386
4.7010,2.0841,-9.7183,3.0141,10.386
4.7020,3.0729,-8.2762,5.1182,10.205
4.7170,0.9913,-3.2552,9.3677,9.967
4.7180,0.9913,-3.2552,9.3677,9.967
4.7280,-0.7162,-1.5651,7.6909,7.881
4.7290,-0.7162,-1.5651,7.6909,7.881
4.7460,-2.0893,-0.7845,4.1592,4.720
4.7460,-2.0893,-0.7845,4.1592,4.720
4.7460,-2.0893,-0.7845,4.1592,4.720
4.7470,-2.0893,-0.7845,4.1592,4.720
4.7640,-3.4973,-0.7406,0.5573,3.618
4.7640,-3.6785,-0.7295,-0.1526,3.753
4.7640,-3.6785,-0.7295,-0.1526,3.753
4.7650,-3.6785,-0.7295,-0.1526,3.753
4.7810,-3.7209,-0.6781,-2.1580,4.355
4.7820,-3.7209,-0.6781,-2.1580,4.355
4.7820,-3.7209,-0.6781,-2.1580,4.355
4.7980,-3.4119,-0.5613,-6.0200,6.942
4.7980,-3.4119,-0.5613,-6.0200,6.942
4.7990,-3.4119,-0.5613,-6.0200,6.942
4.8120,-3.3964,-0.3680,-5.4691,6.448
4.8120,-3.3964,-0.3680,-5.4691,6.448
4.8290,-4.3997,-0.5443,-3.6214,5.724
4.8290,-4.3997,-0.5443,-3.6214,5.724
4.8290,-4.3997,-0.5443,-3.6214,5.724
4.8290,-4.3997,-0.5443,-3.6214,5.724
4.8460,-5.5216,-1.2081,-2.2810,6.095
4.8460,-5.6931,-1.4655,-1.9991,6.209
4.8460,-5.6931,-1.4655,-1.9991,6.209
4.8470,-5.6931,-1.4655,-1.9991,6.209
4.8630,-4.0735,-2.1817,-0.1103,4.622
4.8630,-4.0735,-2.1817,-0.1103,4.622
4.8810,3.1989,-2.1294,5.5323,6.736
4.8840,4.0715,-2.1941,6.4073,7.902
4.8850,4.0715,-2.1941,6.4073,7.902
4.8850,4.0715,-2.1941,6.4073,7.902
4.8950,4.8704,-2.5415,3.3479,6.433
4.8960,4.8704,-2.5415,3.3479,6.433
4.8960,4.8704,-2.5415,3.3479,6.433
4.8960,4.8704,-2.5415,3.3479,6.433
4.9120,4.4342,-2.1684,-3.2069,5.886
4.9120,4.4342,-2.1684,-3.2069,5.886
4.9300,5.6128,0.2537,-2.8764,6.312
4.9300,5.6128,0.2537,-2.8764,6.312
4.9310,5.6128,0.2537,-2.8764,6.312
4.9310,5.6128,0.2537,-2.8764,6.312
4.9460,4.3643,1.2512,-3.8447,5.949
4.9460,3.6930,1.5541,-3.8416,5.551
4.9630,2.6302,2.4690,-2.3939,4.330
4.9630,2.6302,2.4690,-2.3939,4.330
4.9630,2.6302,2.4690,-2.3939,4.330
4.9640,2.6302,2.4690,-2.3939,4.330
4.9790,3.3034,3.1366,-1.6377,4.841
4.9790,3.3034,3.1366,-1.6377,4.841
4.9800,3.3034,3.1366,-1.6377,4.841
4.9800,3.3034,3.1366,-1.6377,4.841
4.9980,4.6970,3.3874,-1.9945,6.125
5.0080,4.7654,3.3707,-2.1224,6.211
5.0120,4.7344,3.3425,-2.1304,6.175
5.0120,4.7344,3.3425,-2.1304,6.175
5.0130,4.7344,3.3425,-2.1304,6.175
5.0130,4.7092,3.2905,-2.1513,6.135
5.0280,4.6627,3.0277,-2.1846,5.973
5.0290,4.6627,3.0277,-2.1846,5.973
5.0450,4.9853,2.5247,-2.0972,5.969
5.0450,4.9853,2.5247,-2.0972,5.969
5.0460,4.9853,2.5247,-2.0972,5.969
5.0460,4.9853,2.5247,-2.0972,5.969
5.0620,5.5419,1.4288,-1.9441,6.044
5.0630,5.5419,1.4288,-1.9441,6.044
5.0630,5.5419,1.4288,-1.9441,6.044
5.0630,5.5419,1.4288,-1.9441,6.044
5.0810,5.7518,1.2576,-2.1604,6.272
5.0820,5.7165,1.3495,-2.2672,6.296
5.0990,5.3195,1.7729,-2.6141,6.187
5.1000,5.3195,1.7729,-2.6141,6.187
5.1000,5.1193,1.9580,-2.6583,6.092
5.1010,5.1193,1.9580,-2.6583,6.092
5.1120,4.9558,2.2159,-2.6790,6.054
5.1120,4.9558,2.2159,-2.6790,6.054
5.1280,3.8340,2.7908,-2.4294,5.328
5.1290,3.8340,2.7908,-2.4294,5.328
5.1290,3.5046,2.8276,-2.3984,5.102
5.1290,3.5046,2.8276,-2.3984,5.102
5.1450,2.5305,3.0206,-2.4578,4.644
5.1450,2.5305,3.0206,-2.4578,4.644
5.1450,2.5305,3.0206,-2.4578,4.644
5.1460,2.5305,3.0206,-2.4578,4.644
5.1630,2.2892,3.7718,-2.8300,5.242
5.1640,2.4620,4.0721,-2.7600,5.501
5.1820,3.0442,4.2421,-1.7653,5.512
5.1830,2.8150,3.8749,-0.9624,4.885
5.1830,2.8150,3.8749,-0.9624,4.885
5.1830,2.8150,3.8749,-0.9624,4.885
5.1980,2.0519,2.1709,1.9274,3.555
5.1990,2.0519,2.1709,1.9274,3.555
5.1990,2.0519,2.1709,1.9274,3.555
5.1990,2.0519,2.1709,1.9274,3.555
5.2120,1.6553,0.4653,0.1391,1.725
5.2120,1.6553,0.4653,0.1391,1.725
5.2290,0.1303,-1.8641,-5.1093,5.440
5.2290,0.1303,-1.8641,-5.1093,5.440
5.2290,0.1303,-1.8641,-5.1093,5.440
5.2300,0.1303,-1.8641,-5.1093,5.440
5.2460,-7.6872,-12.0619,-0.4641,14.311
5.2460,-7.6872,-12.0619,-0.4641,14.311
5.2620,-11.9409,-17.3884,1.6328,21.157
5.2630,-11.9409,-17.3884,1.6328,21.157
5.2630,-11.9409,-17.3884,1.6328,21.157
5.2630,-11.9409,-17.3884,1.6328,21.157
5.2790,-4.5267,-6.7686,1.1677,8.226
5.2790,-4.5267,-6.7686,1.1677,8.226
5.2800,-4.5267,-6.7686,1.1677,8.226
5.2800,-4.5267,-6.7686,1.1677,8.226
5.3010,1.9600,0.9751,0.6184,2.275
5.3010,2.9158,1.7775,0.5778,3.463
5.3130,4.3763,2.7051,0.1233,5.146
5.3130,4.3763,2.7051,0.1233,5.146
5.3130,4.3763,2.7051,0.1233,5.146
5.3130,4.3763,2.7051,0.1233,5.146
5.3290,4.4397,2.1601,-0.2292,4.943
5.3300,4.4397,2.1601,-0.2292,4.943
5.3300,4.4397,2.1601,-0.2292,4.943
5.3300,4.4397,2.1601,-0.2292,4.943
5.3460,3.4815,0.5518,-0.1505,3.528
5.3470,3.4815,0.5518,-0.1505,3.528
5.3630,2.2640,-3.0563,-0.6450,3.858
5.3630,2.2640,-3.0563,-0.6450,3.858
5.3630,2.2640,-3.0563,-0.6450,3.858
5.3640,2.2640,-3.0563,-0.6450,3.858
5.3820,1.0120,-6.3583,-1.4509,6.600
5.3830,1.0120,-6.3583,-1.4509,6.600
5.3830,1.0120,-6.3583,-1.4509,6.600
5.3830,1.0120,-6.3583,-1.4509,6.600
5.3990,2.1714,-4.5770,-0.7141,5.116
5.3990,2.1714,-4.5770,-0.7141,5.116
5.4120,3.2158,-1.8099,-0.0651,3.691
5.4130,3.2158,-1.8099,-0.0651,3.691
5.4130,3.2158,-1.8099,-0.0651,3.691
5.4140,3.5566,-0.7880,0.0308,3.643
5.4290,3.7762,1.1358,-0.3161,3.956
5.4290,3.7762,1.1358,-0.3161,3.956
5.4460,3.1334,1.8540,-0.5040,3.676
5.4460,3.1334,1.8540,-0.5040,3.676
5.4460,3.1334,1.8540,-0.5040,3.676
5.4460,3.1334,1.8540,-0.5040,3.676
5.4630,1.9370,2.5672,-1.1528,3.416
5.4630,1.9370,2.5672,-1.1528,3.416
5.4630,1.9370,2.5672,-1.1528,3.416
5.4630,1.9370,2.5672,-1.1528,3.416
5.4820,0.7526,2.7244,-1.0843,3.027
5.4820,0.7526,2.7244,-1.0843,3.027
5.4960,-0.3288,2.4198,-0.0718,2.443
5.4960,-0.3288,2.4198,-0.0718,2.443
5.4960,-0.3288,2.4198,-0.0718,2.443
5.4970,-0.3288,2.4198,-0.0718,2.443
5.5120,-1.2932,1.8313,0.8412,2.395
5.5220,-1.6396,1.5201,0.9272,2.420
5.5300,-1.7151,1.4367,0.8134,2.381
5.5300,-1.7151,1.4367,0.8134,2.381
5.5300,-1.7151,1.4367,0.8134,2.381
5.5300,-1.7151,1.4367,0.8134,2.381
5.5460,-1.8112,1.4483,-0.1068,2.322
5.5460,-1.8112,1.4483,-0.1068,2.322
5.5460,-1.8112,1.4483,-0.1068,2.322
5.5460,-1.8112,1.4483,-0.1068,2.322
5.5640,-1.3724,1.7909,-0.7579,2.380
5.5640,-1.3724,1.7909,-0.7579,2.380
5.5840,-0.6946,2.5953,-1.3224,2.994
5.5840,-0.6946,2.5953,-1.3224,2.994
5.5850,-0.6946,2.5953,-1.3224,2.994
5.5850,-0.6946,2.5953,-1.3224,2.994
5.6000,-0.6223,2.9052,-1.5790,3.365
5.6000,-0.6223,2.9052,-1.5790,3.365
5.6000,-0.6223,2.9052,-1.5790,3.365
5.6000,-0.6223,2.9052,-1.5790,3.365
5.6130,-1.0726,2.5493,-1.6617,3.227
5.6130,-1.0726,2.5493,-1.6617,3.227
5.6300,-1.7071,1.5966,-1.5734,2.818
5.6300,-1.9029,1.1873,-1.5249,2.712
5.6310,-1.9029,1.1873,-1.5249,2.712
5.6470,-2.3830,0.3132,-1.3463,2.755
5.6470,-2.3830,0.3132,-1.3463,2.755
5.6470,-2.3830,0.3132,-1.3463,2.755
5.6640,-2.6178,0.0595,-2.2567,3.457
5.6650,-2.7145,0.0793,-2.8560,3.941
5.6650,-2.7145,0.0793,-2.8560,3.941
5.6660,-2.7145,0.0793,-2.8560,3.941
5.6800,-3.0496,-0.2547,-3.1849,4.417
5.6810,-3.0496,-0.2547,-3.1849,4.417
5.6810,-3.0496,-0.2547,-3.1849,4.417
5.7000,-2.9217,-0.6653,0.0015,2.997
5.7020,-2.9217,-0.6653,0.0015,2.997
5.7030,-2.8448,-0.7427,1.2249,3.185
5.7180,-2.7238,-1.1391,3.6463,4.692
5.7180,-2.7238,-1.1391,3.6463,4.692
5.7180,-2.7238,-1.1391,3.6463,4.692
5.7180,-2.7238,-1.1391,3.6463,4.692
5.7290,-2.7751,-1.5528,3.9434,5.066
5.7300,-2.7751,-1.5528,3.9434,5.066
5.7470,-2.5937,-2.5479,4.4091,5.715
5.7470,-2.5937,-2.5479,4.4091,5.715
5.7470,-2.5937,-2.5479,4.4091,5.715
5.7630,-3.0959,-2.8009,3.0820,5.189
5.7630,-3.0959,-2.8009,3.0820,5.189
5.7630,-3.0959,-2.8009,3.0820,5.189
5.7630,-3.0959,-2.8009,3.0820,5.189
5.7790,-4.3454,-2.3476,2.5516,5.559
5.7790,-4.3454,-2.3476,2.5516,5.559
5.7800,-4.3454,-2.3476,2.5516,5.559
5.7990,-4.4402,-2.6179,2.6100,5.778
5.7990,-4.4402,-2.6179,2.6100,5.778
5.7990,-4.4402,-2.6179,2.6100,5.778
5.7990,-4.4402,-2.6179,2.6100,5.778
5.8130,-4.4859,-3.1484,2.4959,6.022
5.8130,-4.5871,-3.3814,2.3372,6.159
5.8290,-4.9611,-3.6916,1.8928,6.467
5.8290,-4.9611,-3.6916,1.8928,6.467
5.8290,-4.9611,-3.6916,1.8928,6.467
5.8290,-4.9611,-3.6916,1.8928,6.467
5.8460,-5.0645,-2.1867,0.6746,5.557
5.8470,-4.6171,-1.3756,0.5965,4.854
5.8470,-4.6171,-1.3756,0.5965,4.854
5.8620,-3.6348,-0.1844,0.8800,3.744
5.8630,-3.6348,-0.1844,0.8800,3.744
5.8630,-3.6348,-0.1844,0.8800,3.744
5.8810,-3.3233,-0.5315,2.0818,3.957
5.8820,-3.3233,-0.5315,2.0818,3.957
5.8820,-3.3233,-0.5315,2.0818,3.957
5.8820,-3.3233,-0.5315,2.0818,3.957
5.8990,-3.4321,-1.0603,1.9464,4.086
5.9000,-3.4127,-1.0820,1.6072,3.924
5.9000,-3.4127,-1.0820,1.6072,3.924
5.9130,-3.0865,-0.8573,0.5991,3.259
5.9130,-2.7818,-0.6655,-0.0945,2.862
5.9140,-2.7818,-0.6655,-0.0945,2.862
5.9290,-1.7863,-0.2256,-2.7085,3.252
5.9300,-1.7863,-0.2256,-2.7085,3.252
5.9300,-1.7863,-0.2256,-2.7085,3.252
5.9470,-1.3151,-0.1354,-5.0617,5.231
5.9470,-1.3151,-0.1354,-5.0617,5.231
5.9470,-1.3151,-0.1354,-5.0617,5.231
5.9640,-2.6145,-0.5054,-5.3973,6.018
5.9640,-2.6145,-0.5054,-5.3973,6.018
5.9650,-2.6145,-0.5054,-5.3973,6.018
5.9650,-2.6145,-0.5054,-5.3973,6.018
5.9810,-5.2916,-1.8668,-2.5739,6.173
5.9810,-6.2020,-2.4272,-1.0301,6.739
5.9820,-6.2020,-2.4272,-1.0301,6.739
6.0000,-4.2844,-2.8900,1.6062,5.412
6.0010,-4.2844,-2.8900,1.6062,5.412
6.0010,-4.2844,-2.8900,1.6062,5.412
6.0010,-4.2844,-2.8900,1.6062,5.412
6.0140,0.5927,-2.8569,1.9854,3.529
6.0140,0.5927,-2.8569,1.9854,3.529
6.0300,4.8740,-4.3660,-0.9637,6.614
6.0300,4.8740,-4.3660,-0.9637,6.614
6.0400,4.9384,-3.9245,-1.1563,6.413
6.0480,5.2905,-3.4309,-0.9261,6.373
6.0480,5.2905,-3.4309,-0.9261,6.373
6.0490,5.5962,-2.8930,-0.9250,6.367
6.0490,5.5962,-2.8930,-0.9250,6.367
6.0640,5.1020,-1.2390,-1.6183,5.494
6.0640,5.1020,-1.2390,-1.6183,5.494
6.0640,5.1020,-1.2390,-1.6183,5.494
6.0830,3.6874,0.0919,-1.5251,3.991
6.0830,3.3248,0.3001,-1.1848,3.542
6.0840,3.3248,0.3001,-1.1848,3.542
6.1010,3.0616,0.3247,0.3929,3.104
6.1010,3.3634,0.1701,0.6475,3.429
6.1020,3.3634,0.1701,0.6475,3.429
6.1020,3.3634,0.1701,0.6475,3.429
6.1130,4.5600,-0.1040,0.3505,4.575
6.1140,4.5600,-0.1040,0.3505,4.575
6.1300,6.0109,-0.3773,-1.1356,6.129
6.1300,6.1417,-0.4445,-1.6963,6.387
6.1310,6.1417,-0.4445,-1.6963,6.387
6.1310,6.1417,-0.4445,-1.6963,6.387
6.1470,5.8674,-0.2085,-2.9747,6.582
6.1470,5.8674,-0.2085,-2.9747,6.582
6.1470,5.8674,-0.2085,-2.9747,6.582
6.1670,4.7103,0.0896,-2.8545,5.508
6.1680,4.7103,0.0896,-2.8545,5.508
6.1690,4.3968,0.2106,-2.6600,5.143
6.1690,4.3968,0.2106,-2.6600,5.143
6.1800,3.8538,0.4426,-2.3101,4.515
6.1810,3.8538,0.4426,-2.3101,4.515
6.1810,3.8538,0.4426,-2.3101,4.515
6.2010,3.6271,1.1243,-1.8345,4.217
6.2010,3.6271,1.1243,-1.8345,4.217
6.2020,3.7607,1.2357,-1.8452,4.367
6.2030,3.7607,1.2357,-1.8452,4.367
6.2190,4.0180,1.1130,-2.1378,4.685
6.2190,4.0180,1.1130,-2.1378,4.685
6.2190,4.0180,1.1130,-2.1378,4.685
6.2300,3.9467,1.0894,-2.5592,4.828
6.2300,3.9467,1.0894,-2.5592,4.828
6.2490,2.5682,1.7443,-3.9716,5.041
6.2490,2.5682,1.7443,-3.9716,5.041
6.2490,2.5682,1.7443,-3.9716,5.041
6.2490,2.5682,1.7443,-3.9716,5.041
6.2630,1.3670,2.9200,-4.1256,5.236
6.2630,1.3670,2.9200,-4.1256,5.236
6.2630,1.3670,2.9200,-4.1256,5.236
6.2860,2.8792,4.9152,-2.0537,6.055
6.2870,3.4411,4.8766,-1.7551,6.221
6.2870,3.4411,4.8766,-1.7551,6.221
6.2880,3.4411,4.8766,-1.7551,6.221
6.2990,4.2332,4.4786,-0.9995,6.243
6.2990,4.5080,4.4424,-0.3913,6.341
6.2990,4.5080,4.4424,-0.3913,6.341
6.3140,5.1113,4.3687,1.0046,6.799
6.3140,5.1113,4.3687,1.0046,6.799
6.3300,6.0041,4.0167,1.7458,7.432
6.3300,6.0041,4.0167,1.7458,7.432
6.3300,6.0041,4.0167,1.7458,7.432
6.3300,6.0041,4.0167,1.7458,7.432
6.3470,5.8578,3.9268,0.6944,7.086
6.3470,5.8578,3.9268,0.6944,7.086
6.3470,5.8578,3.9268,0.6944,7.086
6.3640,5.5651,3.5510,-0.9621,6.671
6.3640,5.5651,3.5510,-0.9621,6.671
6.3650,5.5651,3.5510,-0.9621,6.671
6.3810,1.7030,1.5898,2.5891,3.483
6.3820,1.7030,1.5898,2.5891,3.483
6.3820,1.7030,1.5898,2.5891,3.483
6.4010,-1.3142,-6.6874,-3.3362,7.588
6.4020,-1.3142,-6.6874,-3.3362,7.588
6.4020,-1.3142,-6.6874,-3.3362,7.588
6.4020,-1.3142,-6.6874,-3.3362,7.588
6.4180,-4.6073,-12.2665,-12.8772,18.372
6.4180,-4.6073,-12.2665,-12.8772,18.372
6.4190,-6.4660,-14.2258,-8.2067,17.650
6.4190,-6.4660,-14.2258,-8.2067,17.650
6.4300,-9.7054,-16.6847,-0.2913,19.304
6.4300,-9.7054,-16.6847,-0.2913,19.304
6.4470,-14.7053,-14.4806,-5.9389,21.476
6.4480,-12.8597,-10.5390,-5.2069,17.423
6.4480,-12.8597,-10.5390,-5.2069,17.423
6.4480,-12.8597,-10.5390,-5.2069,17.423
6.4640,-5.7107,0.4096,0.6572,5.763
6.4640,-5.7107,0.4096,0.6572,5.763
6.4890,2.1232,5.8335,-1.9911,6.519
6.4890,2.1232,5.8335,-1.9911,6.519
6.4890,2.1232,5.8335,-1.9911,6.519
6.4890,2.1232,5.8335,-1.9911,6.519
6.5000,3.6349,6.1454,-0.7971,7.184
6.5000,3.6349,6.1454,-0.7971,7.184
6.5140,4.5266,5.1229,0.2151,6.840
6.5140,4.5266,5.1229,0.2151,6.840
6.5140,4.6685,4.5153,0.1667,6.497
6.5150,4.6685,4.5153,0.1667,6.497
6.5300,5.1451,2.1577,-0.1073,5.580
6.5310,5.1451,2.1577,-0.1073,5.580
6.5470,5.5547,-0.9499,-0.1553,5.637
6.5470,5.5547,-0.9499,-0.1553,5.637
6.5470,5.5547,-0.9499,-0.1553,5.637
6.5580,4.9804,-4.9223,-1.0543,7.081
6.5630,4.7058,-6.2206,-1.5806,7.959
6.5640,4.7058,-6.2206,-1.5806,7.959
6.5640,4.7058,-6.2206,-1.5806,7.959
6.5640,4.7058,-6.2206,-1.5806,7.959
6.5840,3.8697,-8.5164,-2.3258,9.639
6.5840,3.8697,-8.5164,-2.3258,9.639
6.5980,3.4171,-4.9536,-0.4590,6.035
6.5990,3.4171,-4.9536,-0.4590,6.035
6.5990,3.4171,-4.9536,-0.4590,6.035
6.5990,3.4171,-4.9536,-0.4590,6.035
6.6140,2.9631,0.5298,-0.0396,3.010
6.6140,2.9631,0.5298,-0.0396,3.010
6.6300,-1.5770,-0.5888,-4.3957,4.707
6.6310,-2.2751,-8.5930,-6.1765,10.824
6.6310,-2.2751,-8.5930,-6.1765,10.824
6.6310,-2.2751,-8.5930,-6.1765,10.824
6.6460,-2.6151,-3.9685,-3.2874,5.779
6.6470,-2.6151,-3.9685,-3.2874,5.779
6.6470,-2.6151,-3.9685,-3.2874,5.779
6.6630,-0.0321,0.3416,-0.5664,0.662
6.6640,-0.0321,0.3416,-0.5664,0.662
6.6640,0.4896,1.3542,0.3183,1.475
6.6800,1.1302,3.4995,2.4772,4.434
6.6810,1.1302,3.4995,2.4772,4.434
6.6810,1.1302,3.4995,2.4772,4.434
6.6810,1.1302,3.4995,2.4772,4.434
6.6990,-0.1442,3.5070,2.2805,4.186
6.6990,-0.1442,3.5070,2.2805,4.186
6.6990,-0.1442,3.5070,2.2805,4.186
6.6990,-0.1442,3.5070,2.2805,4.186
6.7130,-1.5252,2.6228,0.7908,3.135
6.7130,-1.5252,2.6228,0.7908,3.135
6.7300,-2.2119,2.0112,-0.1000,2.991
6.7300,-2.2119,2.0112,-0.1000,2.991
6.7300,-2.2119,2.0112,-0.1000,2.991
6.7300,-2.2119,2.0112,-0.1000,2.991
6.7480,-2.0351,2.0104,-0.3345,2.880
6.7480,-2.0351,2.0104,-0.3345,2.880
6.7630,-1.7485,2.2167,-0.5451,2.875
6.7650,-1.7485,2.2167,-0.5451,2.875
6.7650,-1.6988,2.2542,-0.6708,2.901
6.7660,-1.6988,2.2542,-0.6708,2.901
6.7800,-1.7478,2.2445,-1.0681,3.039
6.7800,-1.7478,2.2445,-1.0681,3.039
6.7810,-1.7478,2.2445,-1.0681,3.039
6.7810,-1.7478,2.2445,-1.0681,3.039
6.8060,-1.9242,2.3270,-1.6300,3.431
6.8060,-1.9242,2.3270,-1.6300,3.431
6.8060,-1.9242,2.3270,-1.6300,3.431
6.8060,-1.9242,2.3270,-1.6300,3.431
6.8140,-2.0294,2.1673,-1.5169,3.334
6.8140,-2.0294,2.1673,-1.5169,3.334
6.8300,-2.3118,1.4889,-1.0163,2.932
6.8300,-2.3118,1.4889,-1.0163,2.932
6.8490,-2.6110,0.3418,-0.2433,2.644
6.8490,-2.6110,0.3418,-0.2433,2.644
6.8490,-2.6110,0.3418,-0.2433,2.644
6.8490,-2.6110,0.3418,-0.2433,2.644
6.8630,-2.8247,-0.5317,-0.5113,2.919
6.8630,-2.8247,-0.5317,-0.5113,2.919
6.8640,-2.8247,-0.5317,-0.5113,2.919
6.8640,-2.8247,-0.5317,-0.5113,2.919
6.8810,-2.6321,-0.3997,-0.3001,2.679
6.8810,-2.5082,-0.2755,-0.1269,2.526
6.8990,-2.0414,-0.0987,0.5988,2.130
6.8990,-2.0414,-0.0987,0.5988,2.130
6.8990,-2.0414,-0.0987,0.5988,2.130
6.8990,-2.0414,-0.0987,0.5988,2.130
6.9140,-1.5268,0.3051,0.7322,1.721
6.9160,-1.5268,0.3051,0.7322,1.721
6.9160,-1.5268,0.3051,0.7322,1.721
6.9170,-1.5268,0.3051,0.7322,1.721
6.9300,-1.4303,0.0584,0.3306,1.469
6.9300,-1.4303,0.0584,0.3306,1.469
6.9480,-1.8589,-0.9849,1.2207,2.432
6.9490,-1.8589,-0.9849,1.2207,2.432
6.9490,-1.8589,-0.9849,1.2207,2.432
6.9490,-1.8589,-0.9849,1.2207,2.432
6.9640,-2.1885,-1.4550,1.4199,2.987
6.9640,-2.1885,-1.4550,1.4199,2.987
6.9820,-2.6870,-1.6059,1.1562,3.337
6.9820,-2.6870,-1.6059,1.1562,3.337
6.9830,-2.6870,-1.6059,1.1562,3.337
6.9830,-2.6870,-1.6059,1.1562,3.337
6.9970,-2.7540,-1.9646,0.8091,3.478
6.9980,-2.7540,-1.9646,0.8091,3.478
6.9980,-2.7540,-1.9646,0.8091,3.478
6.9990,-2.7438,-2.2609,0.6242,3.610
7.0140,-2.3949,-3.1199,-0.0305,3.933
7.0150,-2.1766,-3.3290,-0.2638,3.986
7.0300,-1.8153,-3.6323,-0.8527,4.149
7.0310,-1.8153,-3.6323,-0.8527,4.149
7.0310,-1.8153,-3.6323,-0.8527,4.149
7.0310,-1.8153,-3.6323,-0.8527,4.149
7.0470,-0.9853,-3.3100,-2.0508,4.017
7.0470,-0.9853,-3.3100,-2.0508,4.017
7.0470,-0.9853,-3.3100,-2.0508,4.017
7.0480,-0.9853,-3.3100,-2.0508,4.017
7.0640,-0.2123,-3.1473,-1.6101,3.542
7.0730,-0.1657,-3.2337,-0.0823,3.239
7.1050,-3.7859,-1.7723,2.3969,4.819
7.1050,-3.7859,-1.7723,2.3969,4.819
7.1120,-3.6901,-1.5643,2.6625,4.812
7.1140,-3.6901,-1.5643,2.6625,4.812
7.1140,-3.6901,-1.5643,2.6625,4.812
7.1140,-3.6901,-1.5643,2.6625,4.812
7.1150,-3.6901,-1.5643,2.6625,4.812
7.1170,-3.5595,-1.5910,2.8001,4.800
7.1230,-3.4232,-1.6487,2.9484,4.809
7.1230,-3.4232,-1.6487,2.9484,4.809
7.1240,-3.4232,-1.6487,2.9484,4.809
7.1320,-3.2215,-1.8189,3.0830,4.816
7.1320,-3.2215,-1.8189,3.0830,4.816
7.1480,-3.0212,-1.9166,2.5948,4.420
7.1480,-3.0212,-1.9166,2.5948,4.420
7.1480,-3.0212,-1.9166,2.5948,4.420
7.1640,-2.3387,-1.2177,1.4356,3.002
7.1650,-2.3387,-1.2177,1.4356,3.002
7.1650,-2.3387,-1.2177,1.4356,3.002
7.1800,-0.8597,-0.6882,-0.4498,1.190
7.1800,-0.8597,-0.6882,-0.4498,1.190
7.1810,-0.8597,-0.6882,-0.4498,1.190
7.1990,0.4835,-0.4645,-4.3136,4.365
7.1990,0.4835,-0.4645,-4.3136,4.365
7.1990,0.4835,-0.4645,-4.3136,4.365
7.1990,0.4835,-0.4645,-4.3136,4.365
7.2140,0.3874,-1.1717,-6.2884,6.408
7.2140,0.3874,-1.1717,-6.2884,6.408
7.2140,0.3874,-1.1717,-6.2884,6.408
7.2300,0.0410,-2.0530,-5.0529,5.454
7.2310,0.0410,-2.0530,-5.0529,5.454
7.2310,0.0410,-2.0530,-5.0529,5.454
7.2470,-3.2288,-3.3177,4.4582,6.427
7.2480,-3.2288,-3.3177,4.4582,6.427
7.2480,-3.2288,-3.3177,4.4582,6.427
7.2480,-3.2288,-3.3177,4.4582,6.427
7.2640,-2.8881,-4.2743,18.6206,19.322
7.2640,-2.8881,-4.2743,18.6206,19.322
7.2640,-2.8881,-4.2743,18.6206,19.322
7.2820,6.2593,-3.1164,2.2409,7.342
7.2820,6.2593,-3.1164,2.2409,7.342
7.2830,6.2593,-3.1164,2.2409,7.342
7.2990,5.7733,-1.5936,-0.8910,6.055
7.3000,5.7733,-1.5936,-0.8910,6.055
7.3000,5.7733,-1.5936,-0.8910,6.055
7.3000,5.4388,-1.2627,-0.8914,5.654
7.3150,4.0081,-0.3498,-1.3493,4.244
7.3150,4.0081,-0.3498,-1.3493,4.244
7.3160,4.0081,-0.3498,-1.3493,4.244
7.3310,1.7846,0.4893,-2.5200,3.126
7.3310,1.7846,0.4893,-2.5200,3.126
7.3310,1.7846,0.4893,-2.5200,3.126
7.3480,2.8421,1.2854,-0.5563,3.169
7.3490,2.8421,1.2854,-0.5563,3.169
7.3490,2.8421,1.2854,-0.5563,3.169
7.3640,5.0598,1.0283,-2.8094,5.878
7.3640,5.0598,1.0283,-2.8094,5.878
7.3640,5.0598,1.0283,-2.8094,5.878
7.3810,4.7833,0.3319,-2.8580,5.582
7.3820,4.3317,0.2531,-2.5125,5.014
7.3820,4.3317,0.2531,-2.5125,5.014
7.4000,3.0697,0.2546,-1.6618,3.500
7.4010,1.8399,0.5374,-1.2290,2.277
7.4010,1.8399,0.5374,-1.2290,2.277
7.4010,1.8399,0.5374,-1.2290,2.277
7.4160,1.1331,0.8831,-1.2469,1.902
7.4170,1.1241,1.1154,-1.2724,2.031
7.4170,1.1241,1.1154,-1.2724,2.031
7.4310,2.0659,1.8167,-1.3312,3.056
7.4310,2.0659,1.8167,-1.3312,3.056
7.4310,2.0659,1.8167,-1.3312,3.056
7.4470,3.2660,2.3499,-1.9110,4.454
7.4470,3.2660,2.3499,-1.9110,4.454
7.4480,3.2660,2.3499,-1.9110,4.454
7.4650,3.6189,2.6157,-2.6679,5.202
7.4650,3.6189,2.6157,-2.6679,5.202
7.4650,3.6189,2.6157,-2.6679,5.202
7.4660,3.6189,2.6157,-2.6679,5.202
7.4820,4.0117,3.7951,-3.0886,6.327
7.4820,4.0117,3.7951,-3.0886,6.327
7.4830,4.0117,3.7951,-3.0886,6.327
7.5070,4.3410,5.7169,-2.3640,7.558
7.5090,4.3410,5.7169,-2.3640,7.558
7.5090,4.3410,5.7169,-2.3640,7.558
7.5090,4.3410,5.7169,-2.3640,7.558
7.5090,4.3410,5.7169,-2.3640,7.558
7.5200,4.3833,5.8870,-2.3264,7.699
7.5210,4.3833,5.8870,-2.3264,7.699
7.5310,4.3387,6.1888,-2.3198,7.906
7.5330,4.3387,6.1888,-2.3198,7.906
7.5330,4.3387,6.1888,-2.3198,7.906
7.5470,3.2781,5.6273,-2.7830,7.082
7.5470,3.2781,5.6273,-2.7830,7.082
7.5470,3.2781,5.6273,-2.7830,7.082
7.5640,2.0908,4.3802,-2.7338,5.571
7.5640,2.0908,4.3802,-2.7338,5.571
7.5650,2.0908,4.3802,-2.7338,5.571
7.5810,2.7510,3.9614,-1.0568,4.937
7.5810,2.7510,3.9614,-1.0568,4.937
7.5890,2.1986,3.0254,2.2709,4.375
7.6000,0.8820,1.5029,5.7750,6.032
7.6000,0.8820,1.5029,5.7750,6.032
7.6060,0.5782,0.8462,6.1597,6.244
7.6150,0.6242,-0.5726,1.8892,2.070
7.6150,0.6242,-0.5726,1.8892,2.070
7.6310,0.0629,-4.4983,-2.3413,5.072
7.6310,0.0629,-4.4983,-2.3413,5.072
7.6310,0.0629,-4.4983,-2.3413,5.072
7.6480,-3.5501,-10.2773,-2.0698,11.068
7.6480,-3.5501,-10.2773,-2.0698,11.068
7.6480,-3.5501,-10.2773,-2.0698,11.068
7.6480,-3.5501,-10.2773,-2.0698,11.068
7.6640,-6.3328,-11.4012,-3.9311,13.622
7.6650,-6.9957,-11.3268,-3.6134,13.795
7.6820,-8.5911,-8.5337,0.1751,12.110
7.6820,-8.5911,-8.5337,0.1751,12.110
7.6820,-8.5911,-8.5337,0.1751,12.110
7.6830,-8.5911,-8.5337,0.1751,12.110
7.6980,-6.3255,-1.9415,2.0251,6.920
7.6980,-6.3255,-1.9415,2.0251,6.920
7.6980,-6.3255,-1.9415,2.0251,6.920
7.6980,-6.3255,-1.9415,2.0251,6.920
7.7140,0.1586,2.5296,2.1095,3.298
7.7140,0.1586,2.5296,2.1095,3.298
7.7310,3.9017,2.2360,1.6683,4.796
7.7310,3.9017,2.2360,1.6683,4.796
7.7310,3.9017,2.2360,1.6683,4.796
7.7310,3.9017,2.2360,1.6683,4.796
7.7480,6.0363,0.7383,1.4474,6.251
7.7480,6.0363,0.7383,1.4474,6.251
7.7480,6.0363,0.7383,1.4474,6.251
7.7640,6.4363,-1.0694,0.5358,6.546
7.7650,6.4363,-1.0694,0.5358,6.546
7.7650,6.4363,-1.0694,0.5358,6.546
7.7820,5.8729,-3.9292,-0.7465,7.105
7.7820,5.8729,-3.9292,-0.7465,7.105
7.7820,5.8729,-3.9292,-0.7465,7.105
7.7820,5.8729,-3.9292,-0.7465,7.105
7.7990,4.2355,-6.0690,-1.9140,7.644
7.7990,4.2355,-6.0690,-1.9140,7.644
7.7990,4.2355,-6.0690,-1.9140,7.644
7.8140,2.7851,-6.6061,-2.6725,7.651
7.8140,2.4608,-6.1510,-2.7816,7.185
7.8150,2.4608,-6.1510,-2.7816,7.185
7.8310,2.3592,-3.4902,-2.5879,4.944
7.8310,2.3592,-3.4902,-2.5879,4.944
7.8310,2.3592,-3.4902,-2.5879,4.944
7.8480,2.1310,-0.7886,-2.1193,3.107
7.8490,2.1310,-0.7886,-2.1193,3.107
7.8490,2.1310,-0.7886,-2.1193,3.107
7.8640,1.1261,0.4288,-0.9931,1.562
7.8640,1.1261,0.4288,-0.9931,1.562
7.8640,1.1261,0.4288,-0.9931,1.562
7.8640,1.1261,0.4288,-0.9931,1.562
7.8810,0.1714,1.1126,-0.0579,1.127
7.8810,0.1714,1.1126,-0.0579,1.127
7.8810,-0.8611,1.7311,0.5638,2.014
7.9000,-2.0128,2.4518,0.7171,3.252
7.9000,-2.0128,2.4518,0.7171,3.252
7.9000,-2.0128,2.4518,0.7171,3.252
7.9150,-2.1121,2.7815,0.5039,3.529
7.9160,-1.9990,2.8075,0.3725,3.467
7.9160,-1.9990,2.8075,0.3725,3.467
7.9160,-1.9990,2.8075,0.3725,3.467
7.9310,-1.5900,2.6944,0.2953,3.143
7.9310,-1.5900,2.6944,0.2953,3.143
7.9310,-1.5900,2.6944,0.2953,3.143
7.9480,-1.1290,2.4295,0.2153,2.688
7.9480,-1.1290,2.4295,0.2153,2.688
7.9480,-1.1290,2.4295,0.2153,2.688
7.9650,-0.2177,2.5758,0.1221,2.588
7.9650,-0.2177,2.5758,0.1221,2.588
7.9660,-0.2177,2.5758,0.1221,2.588
7.9810,0.1032,2.6139,0.0347,2.616
7.9810,0.1032,2.6139,0.0347,2.616
7.9820,0.1032,2.6139,0.0347,2.616
8.0010,-0.1010,2.4146,-0.3359,2.440
8.0020,-0.1010,2.4146,-0.3359,2.440
8.0020,-0.1010,2.4146,-0.3359,2.440
8.0020,-0.1010,2.4146,-0.3359,2.440
8.0190,-1.3110,1.7665,-0.6571,2.296
8.0200,-1.3110,1.7665,-0.6571,2.296
8.0200,-1.3110,1.7665,-0.6571,2.296
8.0200,-1.3110,1.7665,-0.6571,2.296
8.0320,-1.8338,1.4503,-0.7429,2.453
8.0320,-1.8338,1.4503,-0.7429,2.453
8.0480,-1.9596,1.3405,-0.9096,2.542
8.0480,-1.9596,1.3405,-0.9096,2.542
8.0480,-1.9596,1.3405,-0.9096,2.542
8.0640,-2.0070,1.1163,-0.7823,2.426
8.0650,-2.0070,1.1163,-0.7823,2.426
8.0650,-2.0070,1.1163,-0.7823,2.426
8.0810,-2.3371,0.5380,-0.8520,2.545
8.0820,-2.3371,0.5380,-0.8520,2.545
8.0820,-2.3371,0.5380,-0.8520,2.545
8.0820,-2.3371,0.5380,-0.8520,2.545
8.1030,-2.5359,0.1777,-0.3927,2.572
8.1040,-2.5761,0.1892,-0.3671,2.609
8.1040,-2.5761,0.1892,-0.3671,2.609
8.1200,-2.5952,0.3609,-0.4308,2.655
8.1220,-2.5952,0.3609,-0.4308,2.655
8.1220,-2.5952,0.3609,-0.4308,2.655
8.1230,-2.5952,0.3609,-0.4308,2.655
8.1230,-2.5952,0.3609,-0.4308,2.655
8.1320,-2.4420,0.6253,-0.3101,2.540
8.1320,-2.3300,0.7007,-0.1978,2.441
8.1480,-2.0541,0.6937,0.3742,2.200
8.1480,-2.0541,0.6937,0.3742,2.200
8.1650,-2.0933,0.2195,0.8704,2.278
8.1650,-2.0933,0.2195,0.8704,2.278
8.1660,-2.2154,-0.0386,0.9587,2.414
8.1660,-2.2154,-0.0386,0.9587,2.414
8.1820,-2.6255,-0.8494,1.3725,3.082
8.1820,-2.6255,-0.8494,1.3725,3.082
8.1820,-2.6255,-0.8494,1.3725,3.082
8.2020,-3.1180,-1.8172,1.5575,3.931
8.2020,-3.1180,-1.8172,1.5575,3.931
8.2020,-3.1180,-1.8172,1.5575,3.931
8.2150,-2.7131,-2.3959,1.8536,4.067
8.2150,-2.7131,-2.3959,1.8536,4.067
8.2150,-2.7131,-2.3959,1.8536,4.067
8.2310,-2.6430,-3.5426,2.1483,4.914
8.2310,-2.6430,-3.5426,2.1483,4.914
8.2310,-2.6430,-3.5426,2.1483,4.914
8.2480,-2.9960,-5.7603,1.6083,6.689
8.2480,-2.9960,-5.7603,1.6083,6.689
8.2480,-2.9960,-5.7603,1.6083,6.689
8.2490,-2.9960,-5.7603,1.6083,6.689
8.2650,-3.1787,-6.4612,1.3904,7.334
8.2650,-3.1787,-6.4612,1.3904,7.334
8.2810,-3.4087,-4.5690,2.2414,6.125
8.2820,-3.6064,-3.8865,3.0449,6.114
8.2820,-3.6064,-3.8865,3.0449,6.114
8.2820,-3.6064,-3.8865,3.0449,6.114
8.3010,-5.5338,-2.9638,6.9078,9.334
8.3010,-5.7334,-2.6502,6.9686,9.405
8.3020,-5.7334,-2.6502,6.9686,9.405
8.3020,-5.7334,-2.6502,6.9686,9.405
8.3220,-3.0151,-0.7708,1.2506,3.354
8.3220,-3.0151,-0.7708,1.2506,3.354
8.3220,-3.0151,-0.7708,1.2506,3.354
8.3220,-3.0151,-0.7708,1.2506,3.354
8.3310,-2.1970,-0.1557,-1.4509,2.637
8.3320,-2.1970,-0.1557,-1.4509,2.637
8.3480,-1.1134,0.7854,-5.8011,5.959
8.3480,-0.6586,1.0756,-6.7800,6.896
8.3480,-0.6586,1.0756,-6.7800,6.896
8.3490,-0.6586,1.0756,-6.7800,6.896
8.3650,-2.6107,1.0539,-8.9290,9.362
8.3660,-2.6107,1.0539,-8.9290,9.362
8.3840,-7.1541,0.1354,-4.5432,8.476
8.3850,-7.1541,0.1354,-4.5432,8.476
8.3850,-7.1541,0.1354,-4.5432,8.476
8.3850,-7.1541,0.1354,-4.5432,8.476
8.4030,-14.9507,-5.8526,31.1715,35.063
8.4030,-14.9507,-5.8526,31.1715,35.063
8.4030,-14.9507,-5.8526,31.1715,35.063
8.4040,-14.9507,-5.8526,31.1715,35.063
8.4160,-6.0134,-8.4070,14.6321,17.915
8.4160,-6.0134,-8.4070,14.6321,17.915
8.4320,7.4406,-10.1693,-9.9026,16.026
8.4320,7.4406,-10.1693,-9.9026,16.026
8.4320,7.4406,-10.1693,-9.9026,16.026
8.4330,7.4406,-10.1693,-9.9026,16.026
8.4490,6.8096,-7.3177,-10.5594,14.540
8.4490,6.8096,-7.3177,-10.5594,14.540
8.4660,-1.6285,-6.4969,3.5131,7.563
8.4660,-1.6285,-6.4969,3.5131,7.563
8.4660,-1.6285,-6.4969,3.5131,7.563
8.4670,-1.6285,-6.4969,3.5131,7.563
8.4820,0.5766,-4.6300,-1.0780,4.789
8.4830,0.5766,-4.6300,-1.0780,4.789
8.5030,8.3313,-0.4908,-4.9549,9.706
8.5030,8.3313,-0.4908,-4.9549,9.706
8.5040,8.3313,-0.4908,-4.9549,9.706
8.5040,8.3313,-0.4908,-4.9549,9.706
8.5040,8.3313,-0.4908,-4.9549,9.706
8.5200,5.1326,-0.9161,-0.5655,5.244
8.5200,5.1326,-0.9161,-0.5655,5.244
8.5210,5.1326,-0.9161,-0.5655,5.244
8.5320,3.6911,0.1864,1.5145,3.994
8.5320,3.6911,0.1864,1.5145,3.994
8.5480,4.1590,0.9867,1.3380,4.479
8.5480,4.1590,0.9867,1.3380,4.479
8.5480,4.1590,0.9867,1.3380,4.479
8.5490,4.1590,0.9867,1.3380,4.479
8.5650,4.1773,0.9884,1.1242,4.437
8.5650,4.2750,0.9997,0.8848,4.479
8.5650,4.2750,0.9997,0.8848,4.479
8.5810,5.5227,1.3496,-0.0438,5.685
8.5820,5.5227,1.3496,-0.0438,5.685
8.5820,5.5227,1.3496,-0.0438,5.685
8.6010,7.1339,2.0880,-0.8044,7.477
8.6020,7.1339,2.0880,-0.8044,7.477
8.6020,7.1339,2.0880,-0.8044,7.477
8.6030,7.1339,2.0880,-0.8044,7.477
8.6180,8.5686,4.0545,-1.8129,9.651
8.6190,8.5686,4.0545,-1.8129,9.651
8.6190,8.5686,4.0545,-1.8129,9.651
8.6290,8.6718,4.7496,-1.5888,10.014
8.6320,8.6718,4.7496,-1.5888,10.014
8.6330,8.5799,4.9187,-1.3042,9.975
8.6480,7.8998,4.5642,-0.3211,9.129
8.6480,7.8998,4.5642,-0.3211,9.129
8.6480,7.8998,4.5642,-0.3211,9.129
8.6660,7.2578,3.7723,0.2719,8.184
8.6670,7.1476,3.5916,0.3753,8.008
8.6670,7.1476,3.5916,0.3753,8.008
8.6820,6.9743,3.5429,0.4371,7.835
8.6820,6.9743,3.5429,0.4371,7.835
8.6830,6.9743,3.5429,0.4371,7.835
8.6830,6.9743,3.5429,0.4371,7.835
8.7020,5.6364,4.1061,0.1699,6.976
8.7020,5.6364,4.1061,0.1699,6.976
8.7020,5.6364,4.1061,0.1699,6.976
8.7030,5.6364,4.1061,0.1699,6.976
8.7200,5.2186,4.9998,-0.7799,7.269
8.7200,5.2186,4.9998,-0.7799,7.269
8.7210,5.2186,4.9998,-0.7799,7.269
8.7320,4.4775,5.5971,-2.1206,7.475
8.7330,4.4775,5.5971,-2.1206,7.475
8.7330,4.1583,5.7190,-2.5305,7.510
8.7480,2.1893,5.4423,-2.2352,6.278
8.7480,2.1893,5.4423,-2.2352,6.278
8.7650,-4.7972,3.8432,2.7861,6.749
8.7650,-4.7972,3.8432,2.7861,6.749
8.7650,-4.7972,3.8432,2.7861,6.749
8.7660,-4.7972,3.8432,2.7861,6.749
8.7820,-19.5123,-2.3723,0.0688,19.656
8.7820,-19.5123,-2.3723,0.0688,19.656
8.7820,-19.5123,-2.3723,0.0688,19.656
8.8010,-9.3704,-10.2606,-3.4872,14.326
8.8010,-5.6813,-14.1182,-2.6148,15.441
8.8020,-5.6813,-14.1182,-2.6148,15.441
8.8020,-5.6813,-14.1182,-2.6148,15.441
8.8150,-4.3888,-19.7628,0.9313,20.266
8.8160,-5.2684,-19.9777,4.4431,21.133
8.8160,-5.2684,-19.9777,4.4431,21.133
8.8320,-3.4004,-9.8123,2.5998,10.705
8.8320,-3.4004,-9.8123,2.5998,10.705
8.8320,-3.4004,-9.8123,2.5998,10.705
8.8480,-0.2361,1.5074,-4.9613,5.191
8.8480,0.8747,3.3391,-4.4810,5.656
8.8490,0.8747,3.3391,-4.4810,5.656
8.8650,2.7173,6.1828,-0.4865,6.771
8.8650,2.7173,6.1828,-0.4865,6.771
8.8660,2.7173,6.1828,-0.4865,6.771
8.8660,2.7173,6.1828,-0.4865,6.771
8.8820,1.7964,7.8029,0.9115,8.059
8.8830,1.7964,7.8029,0.9115,8.059
8.9000,3.5427,5.3482,0.3722,6.426
8.9000,3.5427,5.3482,0.3722,6.426
8.9000,3.5427,5.3482,0.3722,6.426
8.9000,3.5427,5.3482,0.3722,6.426
8.9150,6.3148,-0.7196,-0.3485,6.365
8.9170,6.7644,-2.4005,-0.8304,7.226
8.9180,6.7644,-2.4005,-0.8304,7.226
8.9320,6.2998,-5.2051,-2.0906,8.435
8.9320,6.2998,-5.2051,-2.0906,8.435
8.9320,6.2998,-5.2051,-2.0906,8.435
8.9480,3.4546,-5.9146,-1.2633,6.965
8.9480,3.4546,-5.9146,-1.2633,6.965
8.9490,3.4546,-5.9146,-1.2633,6.965
8.9490,3.4546,-5.9146,-1.2633,6.965
8.9650,0.8178,-2.5816,-1.1326,2.935
8.9660,0.8178,-2.5816,-1.1326,2.935
8.9660,0.8178,-2.5816,-1.1326,2.935
8.9810,0.7462,-0.7411,-1.6076,1.921
8.9820,0.7462,-0.7411,-1.6076,1.921
8.9820,0.7462,-0.7411,-1.6076,1.921
9.0000,0.6549,-0.6443,-1.7426,1.970
9.0000,0.6549,-0.6443,-1.7426,1.970
9.0000,0.6549,-0.6443,-1.7426,1.970
9.0000,0.6549,-0.6443,-1.7426,1.970
9.0160,-0.2878,-1.0997,-0.8531,1.421
9.0170,-0.2878,-1.0997,-0.8531,1.421
9.0170,-0.2878,-1.0997,-0.8531,1.421
9.0320,-2.0816,-1.9647,0.8729,2.992
9.0320,-2.0816,-1.9647,0.8729,2.992
9.0320,-2.0816,-1.9647,0.8729,2.992
9.0480,-2.3718,-2.1318,1.9130,3.719
9.0480,-2.3718,-2.1318,1.9130,3.719
9.0490,-2.3718,-2.1318,1.9130,3.719
9.0650,-1.4597,-1.9898,1.5624,2.921
9.0650,-1.1675,-1.9585,1.3253,2.637
9.0660,-1.1675,-1.9585,1.3253,2.637
9.0820,-0.5169,-1.8234,0.8566,2.080
9.0820,-0.5169,-1.8234,0.8566,2.080
9.0820,-0.5169,-1.8234,0.8566,2.080
9.0820,-0.5169,-1.8234,0.8566,2.080
9.1030,1.1626,-1.1929,0.2928,1.691
9.1030,1.1626,-1.1929,0.2928,1.691
9.1040,1.3798,-1.1036,0.3264,1.797
9.1040,1.3798,-1.1036,0.3264,1.797
9.1160,1.6386,-0.9050,0.4241,1.919
9.1170,1.6386,-0.9050,0.4241,1.919
9.1310,1.9201,-0.1284,0.2822,1.945
9.1320,1.9201,-0.1284,0.2822,1.945
9.1320,1.9201,-0.1284,0.2822,1.945
9.1390,2.0223,0.5946,-0.0113,2.108
9.1480,2.0120,1.2698,-0.4574,2.423
9.1480,2.0120,1.2698,-0.4574,2.423
9.1480,2.0120,1.2698,-0.4574,2.423
9.1650,1.6975,1.9955,-1.0927,2.839
9.1650,1.6975,1.9955,-1.0927,2.839
9.1650,1.6975,1.9955,-1.0927,2.839
9.1820,0.9779,2.4738,-1.7443,3.181
9.1820,0.9779,2.4738,-1.7443,3.181
9.1820,0.9779,2.4738,-1.7443,3.181
9.2000,0.0947,2.6795,-2.5818,3.722
9.2010,0.0947,2.6795,-2.5818,3.722
9.2010,0.0947,2.6795,-2.5818,3.722
9.2010,0.0947,2.6795,-2.5818,3.722
9.2150,-1.8481,2.0772,-1.8667,3.349
9.2160,-1.8481,2.0772,-1.8667,3.349
9.2170,-1.8481,2.0772,-1.8667,3.349
9.2320,-2.9599,1.4953,0.3735,3.337
9.2320,-2.9599,1.4953,0.3735,3.337
9.2320,-2.9599,1.4953,0.3735,3.337
9.2490,-3.6175,1.3726,0.9105,3.975
9.2490,-3.6175,1.3726,0.9105,3.975
9.2490,-3.6175,1.3726,0.9105,3.975
9.2650,-3.2643,1.6667,0.2105,3.671
9.2660,-3.2643,1.6667,0.2105,3.671
9.2660,-3.2643,1.6667,0.2105,3.671
9.2660,-3.2643,1.6667,0.2105,3.671
9.2830,-2.0863,2.4009,-0.3156,3.196
9.2830,-2.0863,2.4009,-0.3156,3.196
9.2830,-2.0863,2.4009,-0.3156,3.196
9.3000,-0.9224,2.4252,-0.2324,2.605
9.3010,-0.9224,2.4252,-0.2324,2.605
9.3010,-0.5722,2.3011,0.0151,2.371
9.3020,-0.5722,2.3011,0.0151,2.371
9.3160,-0.0230,2.0029,0.4507,2.053
9.3160,-0.0230,2.0029,0.4507,2.053
9.3160,-0.0230,2.0029,0.4507,2.053
9.3320,1.0544,1.7530,0.7719,2.186
9.3320,1.0544,1.7530,0.7719,2.186
9.3320,1.0544,1.7530,0.7719,2.186
9.3480,1.4753,1.4959,0.9075,2.289
9.3490,1.4753,1.4959,0.9075,2.289
9.3490,1.4948,1.4011,0.9096,2.242
9.3660,1.1153,0.9293,0.6801,1.603
9.3670,1.1153,0.9293,0.6801,1.603
9.3670,1.1153,0.9293,0.6801,1.603
9.3670,1.1153,0.9293,0.6801,1.603
9.3820,0.3051,0.6198,0.6938,0.979
9.3820,0.3051,0.6198,0.6938,0.979
9.3830,-0.0219,0.6458,0.7468,0.988
9.4010,-1.0287,1.2179,0.9839,1.873
9.4010,-1.0287,1.2179,0.9839,1.873
9.4010,-1.0287,1.2179,0.9839,1.873
9.4180,-3.1532,1.6759,2.5077,4.363
9.4180,-3.1532,1.6759,2.5077,4.363
9.4180,-3.1532,1.6759,2.5077,4.363
9.4320,-4.4013,1.5576,4.5134,6.494
9.4320,-4.4013,1.5576,4.5134,6.494
9.4330,-4.4013,1.5576,4.5134,6.494
9.4510,-4.4013,1.5576,4.5134,6.494
9.4520,-4.4013,1.5576,4.5134,6.494
9.4520,-4.4013,1.5576,4.5134,6.494
9.4520,-4.4013,1.5576,4.5134,6.494
9.4650,-4.4013,1.5576,4.5134,6.494
9.4660,-4.4013,1.5576,4.5134,6.494
9.4870,-4.4013,1.5576,4.5134,6.494
9.4870,-4.4013,1.5576,4.5134,6.494
9.4880,-4.4013,1.5576,4.5134,6.494
9.4880,-4.4013,1.5576,4.5134,6.494
9.5050,-2.7056,1.2541,-0.3107,2.998
9.5060,-3.3418,0.1757,-0.4811,3.381
9.5060,-3.3418,0.1757,-0.4811,3.381
9.5060,-3.3418,0.1757,-0.4811,3.381
9.5250,-4.2721,-3.0495,-0.3874,5.263
9.5260,-4.2721,-3.0495,-0.3874,5.263
9.5260,-4.2721,-3.0495,-0.3874,5.263
9.5260,-4.2721,-3.0495,-0.3874,5.263
9.5330,-4.2721,-3.0495,-0.3874,5.263
9.5490,-4.4402,-6.5278,1.2482,7.993
9.5490,-4.4402,-6.5278,1.2482,7.993
9.5490,-4.4402,-6.5278,1.2482,7.993
9.5660,-4.2207,-9.2586,3.6048,10.795
9.5660,-4.2207,-9.2586,3.6048,10.795
9.5660,-4.2207,-9.2586,3.6048,10.795
9.5660,-4.2207,-9.2586,3.6048,10.795
9.5820,-0.3797,-9.2520,7.7555,12.079
9.5820,-0.3797,-9.2520,7.7555,12.079
9.6000,1.5610,-6.2461,11.1233,12.852
9.6000,1.5610,-6.2461,11.1233,12.852
9.6000,1.5610,-6.2461,11.1233,12.852
9.6010,1.5610,-6.2461,11.1233,12.852
9.6160,0.9866,-6.6986,8.1482,10.594
9.6160,0.9866,-6.6986,8.1482,10.594
9.6160,0.9866,-6.6986,8.1482,10.594
9.6320,6.2520,-7.3100,1.2144,9.695
9.6320,6.2520,-7.3100,1.2144,9.695
9.6330,6.3897,-7.7267,0.1433,10.028
9.6490,6.3304,-7.5817,-2.5754,10.207
9.6500,6.3304,-7.5817,-2.5754,10.207
9.6500,6.3304,-7.5817,-2.5754,10.207
9.6590,6.6903,-6.8943,-3.6884,10.291
9.6660,6.8042,-6.4866,-4.4299,10.392
9.6660,6.8042,-6.4866,-4.4299,10.392
9.6820,6.7975,-5.5680,-4.5984,9.917
9.6820,6.7975,-5.5680,-4.5984,9.917
9.6820,6.7975,-5.5680,-4.5984,9.917
9.6820,6.7975,-5.5680,-4.5984,9.917
9.7000,6.3890,-2.9192,-0.8035,7.070
9.7010,5.9084,-2.0428,-0.3734,6.263
9.7010,5.9084,-2.0428,-0.3734,6.263
9.7010,5.9084,-2.0428,-0.3734,6.263
9.7160,3.5801,-0.1714,0.0729,3.585
9.7170,3.5801,-0.1714,0.0729,3.585
9.7320,0.7912,0.5578,0.6445,1.163
9.7320,0.7912,0.5578,0.6445,1.163
9.7320,0.7912,0.5578,0.6445,1.163
9.7320,0.7912,0.5578,0.6445,1.163
9.7490,0.9890,1.1133,-2.2164,2.670
9.7490,0.9890,1.1133,-2.2164,2.670
9.7490,0.9890,1.1133,-2.2164,2.670
9.7660,1.6584,1.3103,-3.2909,3.911
9.7670,1.6584,1.3103,-3.2909,3.911
9.7670,1.6584,1.3103,-3.2909,3.911
9.7820,2.2628,1.4433,-3.1282,4.122
9.7820,2.5047,1.5564,-3.0366,4.233
9.7820,2.5047,1.5564,-3.0366,4.233
9.7820,2.5047,1.5564,-3.0366,4.233
9.8000,2.6717,2.0252,-2.7343,4.326
9.8000,2.6717,2.0252,-2.7343,4.326
9.8000,2.6717,2.0252,-2.7343,4.326
9.8160,2.3557,2.7107,-2.2273,4.226
9.8170,2.3047,2.9400,-2.0444,4.259
9.8170,2.3047,2.9400,-2.0444,4.259
9.8320,2.6521,3.5303,-1.6959,4.730
9.8320,2.6521,3.5303,-1.6959,4.730
9.8330,2.6521,3.5303,-1.6959,4.730
9.8330,2.6521,3.5303,-1.6959,4.730
9.8490,3.6419,3.4587,-1.4526,5.228
9.8490,3.9809,3.3108,-1.4330,5.372
9.8660,4.5913,2.9287,-1.2571,5.589
9.8660,4.5913,2.9287,-1.2571,5.589
9.8660,4.5913,2.9287,-1.2571,5.589
9.8670,4.5913,2.9287,-1.2571,5.589
9.8820,4.8991,2.8640,-1.1732,5.795
9.8820,4.8991,2.8640,-1.1732,5.795
9.8830,4.8991,2.8640,-1.1732,5.795
9.9010,5.1671,3.2964,-1.4797,6.305
9.9010,5.1671,3.2964,-1.4797,6.305
9.9020,5.1671,3.2964,-1.4797,6.305
9.9020,5.1671,3.2964,-1.4797,6.305
9.9160,5.4741,3.9979,-1.1089,6.869
9.9160,5.4741,3.9979,-1.1089,6.869
9.9160,5.4741,3.9979,-1.1089,6.869
9.9320,5.6464,5.0725,-0.1642,7.592
9.9320,5.6464,5.0725,-0.1642,7.592
9.9320,5.6464,5.0725,-0.1642,7.592
9.9490,4.5439,4.9250,0.2243,6.705
9.9490,4.5439,4.9250,0.2243,6.705
9.9490,4.5439,4.9250,0.2243,6.705
9.9660,-1.0780,0.8514,-1.2815,1.879
9.9660,-1.0780,0.8514,-1.2815,1.879
9.9670,-1.0780,0.8514,-1.2815,1.879
9.9670,-1.0780,0.8514,-1.2815,1.879
9.9820,-6.1210,-2.0742,-2.2537,6.845
9.9830,-6.1210,-2.0742,-2.2537,6.845
10.0010,-12.1468,-5.0754,1.2069,13.220
10.0020,-12.1468,-5.0754,1.2069,13.220
10.0020,-12.1468,-5.0754,1.2069,13.220
10.0020,-12.1468,-5.0754,1.2069,13.220
10.0180,-15.2789,-4.4468,7.2016,17.467
10.0180,-15.3209,-3.2315,8.1775,17.665
10.0180,-15.3209,-3.2315,8.1775,17.665
10.0190,-15.3209,-3.2315,8.1775,17.665
10.0330,-12.1930,1.1578,7.8464,14.546
10.0330,-12.1930,1.1578,7.8464,14.546
10.0490,-9.3189,2.8573,6.0124,11.452
10.0490,-9.3189,2.8573,6.0124,11.452
10.0500,-9.3189,2.8573,6.0124,11.452
10.0500,-9.3189,2.8573,6.0124,11.452
10.0670,-4.8010,2.9343,-0.0945,5.627
10.0680,-3.9246,1.9430,-0.3157,4.391
10.0680,-3.9246,1.9430,-0.3157,4.391
10.0680,-3.9246,1.9430,-0.3157,4.391
10.0830,-2.5765,-4.3053,-0.4976,5.042
10.0830,-2.5765,-4.3053,-0.4976,5.042
10.1020,-1.5821,-10.2243,-0.0508,10.346
10.1020,-1.5821,-10.2243,-0.0508,10.346
10.1020,-1.5821,-10.2243,-0.0508,10.346
10.1020,-1.5821,-10.2243,-0.0508,10.346
10.1180,-1.7503,-14.0973,2.9219,14.503
10.1190,-1.7503,-14.0973,2.9219,14.503
10.1190,-1.7503,-14.0973,2.9219,14.503
10.1190,-1.8261,-15.2283,3.6872,15.774
10.1330,-0.5474,-15.1941,4.5477,15.870
10.1330,1.1995,-12.6053,4.9044,13.579
10.1490,5.6036,-3.1859,3.5846,7.376
10.1490,5.6036,-3.1859,3.5846,7.376
10.1490,5.6036,-3.1859,3.5846,7.376
10.1500,5.6036,-3.1859,3.5846,7.376
10.1660,6.9744,0.1749,1.0596,7.057
10.1740,7.3716,2.3836,-0.1522,7.749
10.1830,7.3114,2.8244,0.3531,7.846
10.1830,7.3114,2.8244,0.3531,7.846
10.1830,7.3114,2.8244,0.3531,7.846
10.1830,7.3114,2.8244,0.3531,7.846
10.2010,6.9657,3.6444,1.4610,7.996
10.2020,6.8811,3.8748,1.5078,8.040
10.2020,6.8811,3.8748,1.5078,8.040
10.2020,6.8811,3.8748,1.5078,8.040
10.2160,6.9032,3.9313,0.4288,7.956
10.2160,6.9032,3.9313,0.4288,7.956
10.2320,6.7923,1.5754,-1.3071,7.094
10.2330,6.7923,1.5754,-1.3071,7.094
10.2330,6.7923,1.5754,-1.3071,7.094
10.2330,6.7923,1.5754,-1.3071,7.094
10.2490,5.9487,-3.3007,-2.9670,7.422
10.2490,5.9487,-3.3007,-2.9670,7.422
10.2490,5.9487,-3.3007,-2.9670,7.422
10.2500,5.9487,-3.3007,-2.9670,7.422
10.2660,4.3030,-6.5995,-4.6841,9.166
10.2660,4.3030,-6.5995,-4.6841,9.166
10.2820,2.5668,-6.5404,-6.2353,9.394
10.2830,2.5668,-6.5404,-6.2353,9.394
10.2830,2.5668,-6.5404,-6.2353,9.394
10.2830,2.5668,-6.5404,-6.2353,9.394
10.3010,2.9205,-2.9243,-3.3041,5.291
10.3010,2.9205,-2.9243,-3.3041,5.291
10.3010,2.9205,-2.9243,-3.3041,5.291
10.3020,2.9205,-2.9243,-3.3041,5.291
10.3190,3.5440,0.5127,-1.2562,3.795
10.3190,3.5440,0.5127,-1.2562,3.795
10.3320,3.8779,2.0810,-0.7449,4.464
10.3330,3.8779,2.0810,-0.7449,4.464
10.3330,3.8779,2.0810,-0.7449,4.464
10.3330,3.8779,2.0810,-0.7449,4.464
10.3500,3.0391,2.2317,-0.8774,3.871
10.3510,3.0391,2.2317,-0.8774,3.871
10.3680,1.1138,0.8966,-1.5444,2.105
10.3680,1.1138,0.8966,-1.5444,2.105
10.3680,1.1138,0.8966,-1.5444,2.105
10.3680,1.1138,0.8966,-1.5444,2.105
10.3820,-0.4864,-0.3763,-1.5143,1.634
10.3830,-0.4864,-0.3763,-1.5143,1.634
10.3830,-0.4864,-0.3763,-1.5143,1.634
10.3830,-0.4864,-0.3763,-1.5143,1.634
10.4010,-1.8679,-1.2702,-1.4803,2.701
10.4010,-1.8679,-1.2702,-1.4803,2.701
10.4160,-2.6393,-1.3399,-1.7947,3.462
10.4160,-2.6393,-1.3399,-1.7947,3.462
10.4160,-2.6393,-1.3399,-1.7947,3.462
10.4160,-2.6393,-1.3399,-1.7947,3.462
10.4330,-3.0007,-0.3626,-2.1291,3.697
10.4330,-3.0007,-0.3626,-2.1291,3.697
10.4330,-3.0007,-0.3626,-2.1291,3.697
10.4330,-3.0007,-0.3626,-2.1291,3.697
10.4490,-2.5561,1.0733,-2.1454,3.505
10.4490,-2.5561,1.0733,-2.1454,3.505
10.4660,-2.1364,2.6037,-1.2807,3.603
10.4670,-2.1364,2.6037,-1.2807,3.603
10.4670,-2.1364,2.6037,-1.2807,3.603
10.4670,-2.1364,2.6037,-1.2807,3.603
10.4830,-2.4947,2.8715,-0.5140,3.838
10.4830,-2.4947,2.8715,-0.5140,3.838
10.5010,-3.1544,2.5505,-0.0892,4.058
10.5010,-3.1544,2.5505,-0.0892,4.058
10.5010,-3.1544,2.5505,-0.0892,4.058
10.5010,-3.1544,2.5505,-0.0892,4.058
10.5160,-3.2249,2.3065,0.1803,3.969
10.5160,-3.2249,2.3065,0.1803,3.969
10.5160,-3.2249,2.3065,0.1803,3.969
10.5160,-3.2249,2.3065,0.1803,3.969
10.5330,-3.2288,2.0549,0.3333,3.842
10.5340,-3.2038,1.6770,0.3621,3.634
10.5490,-2.9622,1.3355,0.4970,3.287
10.5490,-2.9622,1.3355,0.4970,3.287
10.5500,-2.9622,1.3355,0.4970,3.287
10.5500,-2.9622,1.3355,0.4970,3.287
10.5660,-2.4268,1.4843,0.7289,2.937
10.5660,-2.2337,1.5886,0.8115,2.859
10.5670,-2.2337,1.5886,0.8115,2.859
10.5670,-2.2337,1.5886,0.8115,2.859
10.5820,-1.8259,1.9040,1.0179,2.828
10.5830,-1.8259,1.9040,1.0179,2.828
10.6010,-1.9343,2.1569,1.0278,3.074
10.6010,-2.1397,2.2152,0.9536,3.224
10.6020,-2.1397,2.2152,0.9536,3.224
10.6020,-2.1397,2.2152,0.9536,3.224
10.6170,-3.0994,2.3759,0.5929,3.950
10.6170,-3.0994,2.3759,0.5929,3.950
10.6170,-3.0994,2.3759,0.5929,3.950
10.6170,-3.0994,2.3759,0.5929,3.950
10.6330,-4.2152,2.5363,0.4280,4.938
10.6330,-4.2152,2.5363,0.4280,4.938
10.6490,-4.6753,2.9642,1.0998,5.644
10.6490,-4.6753,2.9642,1.0998,5.644
10.6500,-4.6753,2.9642,1.0998,5.644
10.6500,-4.6753,2.9642,1.0998,5.644
10.6660,-4.4450,2.4382,4.4098,6.719
10.6670,-4.4450,2.4382,4.4098,6.719
10.6830,-4.3260,1.0101,4.9461,6.648
10.6900,-4.2506,0.7154,4.3826,6.147
10.6910,-4.2506,0.7154,4.3826,6.147
10.6930,-4.2220,0.3931,3.7434,5.656
10.7010,-4.2881,-0.0175,3.0763,5.277
10.7020,-4.4704,-0.5292,2.4536,5.127
10.7020,-4.4704,-0.5292,2.4536,5.127
10.7020,-4.4704,-0.5292,2.4536,5.127
10.7170,-4.9891,-2.1346,1.3065,5.582
10.7170,-4.9891,-2.1346,1.3065,5.582
10.7330,-4.4158,-2.9036,0.6296,5.322
10.7330,-4.4158,-2.9036,0.6296,5.322
10.7330,-4.4158,-2.9036,0.6296,5.322
10.7330,-4.4158,-2.9036,0.6296,5.322
10.7500,-3.2886,-3.3958,0.2585,4.734
10.7500,-3.2886,-3.3958,0.2585,4.734
10.7500,-3.2886,-3.3958,0.2585,4.734
10.7500,-3.2886,-3.3958,0.2585,4.734
10.7660,-2.9174,-3.5502,0.0599,4.595
10.7660,-2.9174,-3.5502,0.0599,4.595
10.7830,-2.5742,-4.1575,2.3184,5.412
10.7830,-2.5742,-4.1575,2.3184,5.412
10.7830,-2.5742,-4.1575,2.3184,5.412
10.7830,-2.5742,-4.1575,2.3184,5.412
10.8010,-2.3963,-3.8082,8.4469,9.571
10.8020,-2.3963,-3.8082,8.4469,9.571
10.8020,-2.3963,-3.8082,8.4469,9.571
10.8020,-2.3963,-3.8082,8.4469,9.571
10.8170,-4.4343,-3.2217,14.8997,15.876
10.8170,-4.4304,-3.4540,11.0233,12.372
10.8330,-1.8789,-5.1040,4.0321,6.770
10.8330,-1.8789,-5.1040,4.0321,6.770
10.8330,-1.8789,-5.1040,4.0321,6.770
10.8330,-1.8789,-5.1040,4.0321,6.770
10.8500,0.1408,-7.4264,0.7175,7.462
10.8500,0.1408,-7.4264,0.7175,7.462
10.8670,2.5616,-8.2217,-0.6476,8.636
10.8690,2.5616,-8.2217,-0.6476,8.636
10.8690,2.5616,-8.2217,-0.6476,8.636
10.8690,2.5616,-8.2217,-0.6476,8.636
10.8830,3.7784,-9.7226,-1.9980,10.621
10.8830,3.7784,-9.7226,-1.9980,10.621
10.8830,3.7784,-9.7226,-1.9980,10.621
10.8830,3.7784,-9.7226,-1.9980,10.621
10.9040,5.1279,-11.0471,-5.7153,13.454
10.9040,5.1279,-11.0471,-5.7153,13.454
10.9050,5.1279,-11.0471,-5.7153,13.454
10.9050,5.1279,-11.0471,-5.7153,13.454
10.9160,6.5489,-9.5902,-4.4716,12.444
10.9170,6.5489,-9.5902,-4.4716,12.444
10.9330,3.8364,-2.8584,0.4754,4.808
10.9330,3.8364,-2.8584,0.4754,4.808
10.9330,3.8364,-2.8584,0.4754,4.808
10.9340,3.8364,-2.8584,0.4754,4.808
10.9500,-1.9210,-0.4544,0.4534,2.025
10.9500,-1.9210,-0.4544,0.4534,2.025
10.9670,-6.7730,-0.6413,1.2462,6.916
10.9670,-6.7730,-0.6413,1.2462,6.916
10.9670,-6.7730,-0.6413,1.2462,6.916
10.9680,-6.7730,-0.6413,1.2462,6.916
10.9840,-8.5212,-0.6780,0.4201,8.558
10.9840,-8.5212,-0.6780,0.4201,8.558
10.9840,-8.5212,-0.6780,0.4201,8.558
10.9850,-8.5212,-0.6780,0.4201,8.558
11.0010,-3.6892,-0.1953,-2.4347,4.425
11.0020,-3.6892,-0.1953,-2.4347,4.425
11.0170,2.9270,-2.0104,-0.8285,3.646
11.0170,2.9270,-2.0104,-0.8285,3.646
11.0170,2.9270,-2.0104,-0.8285,3.646
11.0170,2.9270,-2.0104,-0.8285,3.646
11.0330,4.9368,-3.3448,0.8630,6.025
11.0340,5.0800,-3.4968,0.8903,6.231
11.0500,6.0733,-2.9099,-0.3330,6.743
11.0500,6.0733,-2.9099,-0.3330,6.743
11.0500,6.0733,-2.9099,-0.3330,6.743
11.0500,6.0733,-2.9099,-0.3330,6.743
11.0670,7.7951,-1.1338,-2.3428,8.218
11.0670,7.7951,-1.1338,-2.3428,8.218
11.0670,7.7951,-1.1338,-2.3428,8.218
11.0680,7.7951,-1.1338,-2.3428,8.218
11.0830,8.0388,0.2895,-2.8096,8.521
11.0830,8.0388,0.2895,-2.8096,8.521
11.1010,6.7918,2.1236,-3.3409,7.861
11.1020,6.7918,2.1236,-3.3409,7.861
11.1020,6.7918,2.1236,-3.3409,7.861
11.1020,6.7918,2.1236,-3.3409,7.861
11.1170,5.2179,2.7344,-3.2892,6.747
11.1170,5.2179,2.7344,-3.2892,6.747
11.1170,5.2179,2.7344,-3.2892,6.747
11.1170,5.2179,2.7344,-3.2892,6.747
11.1330,4.5577,2.8934,-2.4885,5.944
11.1330,4.5577,2.8934,-2.4885,5.944
11.1500,3.9390,3.5792,-0.9686,5.410
11.1500,3.9390,3.5792,-0.9686,5.410
11.1500,3.9390,3.5792,-0.9686,5.410
11.1500,3.9390,3.5792,-0.9686,5.410
11.1670,4.0880,4.3101,-0.1489,5.942
11.1670,4.0880,4.3101,-0.1489,5.942
11.1670,4.0880,4.3101,-0.1489,5.942
11.1670,4.0880,4.3101,-0.1489,5.942
11.1830,3.0148,5.7016,-0.6239,6.480
11.1930,1.7360,6.3403,-1.7934,6.814
11.2010,1.1401,6.6118,-2.4190,7.132
11.2020,0.6175,6.8348,-2.8872,7.445
11.2020,0.6175,6.8348,-2.8872,7.445
11.2020,0.6175,6.8348,-2.8872,7.445
11.2170,-0.5866,6.6150,-3.6403,7.573
11.2170,-0.5866,6.6150,-3.6403,7.573
11.2170,-0.5866,6.6150,-3.6403,7.573
11.2330,0.1287,5.7318,-3.1343,6.534
11.2340,0.1287,5.7318,-3.1343,6.534
11.2340,0.1287,5.7318,-3.1343,6.534
11.2500,2.0702,4.3660,-1.4439,5.043
11.2500,2.0702,4.3660,-1.4439,5.043
11.2500,2.0702,4.3660,-1.4439,5.043
11.2510,2.0702,4.3660,-1.4439,5.043
11.2670,1.0211,0.0116,4.7153,4.825
11.2670,1.0211,0.0116,4.7153,4.825
11.2830,0.9811,-4.2099,11.6573,12.433
11.2840,1.6351,-6.5633,7.7944,10.320
11.2840,1.6351,-6.5633,7.7944,10.320
11.2840,1.6351,-6.5633,7.7944,10.320
11.3030,-0.4557,-11.4123,-5.2111,12.554
11.3030,-1.9307,-12.2256,-5.8971,13.710
11.3040,-1.9307,-12.2256,-5.8971,13.710
11.3040,-1.9307,-12.2256,-5.8971,13.710
11.3180,-7.4025,-13.4687,0.2280,15.371
11.3180,-7.4025,-13.4687,0.2280,15.371
11.3330,-7.8468,-7.8509,2.4331,11.363
11.3340,-7.8468,-7.8509,2.4331,11.363
11.3340,-7.8468,-7.8509,2.4331,11.363
11.3340,-7.8468,-7.8509,2.4331,11.363
11.3500,0.0168,-0.6190,0.0124,0.619
11.3510,2.0008,0.6465,-0.8093,2.253
11.3510,2.0008,0.6465,-0.8093,2.253
11.3510,2.0008,0.6465,-0.8093,2.253
11.3670,5.0122,2.2358,-1.5462,5.702
11.3680,5.0122,2.2358,-1.5462,5.702
11.3830,8.1466,2.9685,-1.1275,8.744
11.3840,8.1466,2.9685,-1.1275,8.744
11.3840,8.1466,2.9685,-1.1275,8.744
11.3840,8.1466,2.9685,-1.1275,8.744
11.4010,7.6272,1.3211,-2.0519,8.008
11.4020,7.6272,1.3211,-2.0519,8.008
11.4020,7.6272,1.3211,-2.0519,8.008
11.4020,7.6272,1.3211,-2.0519,8.008
11.4170,5.8434,-0.7337,-4.1386,7.198
11.4170,5.8434,-0.7337,-4.1386,7.198
11.4330,1.5558,-4.9539,-5.9861,7.924
11.4340,1.5558,-4.9539,-5.9861,7.924
11.4340,1.5558,-4.9539,-5.9861,7.924
11.4340,1.5558,-4.9539,-5.9861,7.924
11.4500,-2.5687,-7.8084,-4.7971,9.517
11.4500,-2.5687,-7.8084,-4.7971,9.517
11.4670,-5.4016,-6.8595,0.6359,8.754
11.4670,-5.4016,-6.8595,0.6359,8.754
11.4670,-5.4016,-6.8595,0.6359,8.754
11.4670,-5.4016,-6.8595,0.6359,8.754
11.4830,-3.9132,-2.4008,2.9337,5.448
11.4840,-3.9132,-2.4008,2.9337,5.448
11.4840,-3.9132,-2.4008,2.9337,5.448
11.4840,-3.9132,-2.4008,2.9337,5.448
11.5010,-1.3547,1.2896,0.6813,1.991
11.5020,-1.3547,1.2896,0.6813,1.991
11.5170,-0.3482,1.3701,-0.0381,1.414
11.5170,-0.3482,1.3701,-0.0381,1.414
11.5170,-0.3482,1.3701,-0.0381,1.414
11.5170,-0.3482,1.3701,-0.0381,1.414
11.5340,0.3558,0.6275,0.0486,0.723
11.5340,0.6144,0.4931,0.2079,0.815
11.5340,0.6144,0.4931,0.2079,0.815
11.5340,0.6144,0.4931,0.2079,0.815
11.5500,1.3833,0.3328,0.8384,1.651
11.5500,1.3833,0.3328,0.8384,1.651
11.5670,2.1002,0.4912,0.6080,2.241
11.5680,2.1002,0.4912,0.6080,2.241
11.5680,2.1002,0.4912,0.6080,2.241
11.5680,2.1002,0.4912,0.6080,2.241
11.5840,2.4320,0.7540,-0.2743,2.561
11.5840,2.4320,0.7540,-0.2743,2.561
11.5840,2.4320,0.7540,-0.2743,2.561
11.5840,2.4320,0.7540,-0.2743,2.561
11.6020,1.7297,0.3084,-0.8071,1.933
11.6020,1.7297,0.3084,-0.8071,1.933
11.6170,1.5074,0.8943,-0.8627,1.954
11.6170,1.5074,0.8943,-0.8627,1.954
11.6170,1.5074,0.8943,-0.8627,1.954
11.6180,1.5074,0.8943,-0.8627,1.954
11.6340,0.7675,1.3752,-1.4357,2.131
11.6340,0.7675,1.3752,-1.4357,2.131
11.6340,0.7675,1.3752,-1.4357,2.131
11.6500,-0.4122,1.7560,-1.8708,2.599
11.6500,-0.4122,1.7560,-1.8708,2.599
11.6510,-0.4122,1.7560,-1.8708,2.599
11.6670,-1.4157,1.4388,-1.7224,2.653
11.6670,-1.4157,1.4388,-1.7224,2.653
11.6680,-1.4157,1.4388,-1.7224,2.653
11.6680,-1.4157,1.4388,-1.7224,2.653
11.6840,-1.4000,1.4247,-0.9580,2.215
11.6840,-1.4000,1.4247,-0.9580,2.215
11.7020,-0.7787,1.6573,-0.5359,1.908
11.7130,-0.4272,1.6250,-0.0040,1.680
11.7130,-0.4272,1.6250,-0.0040,1.680
11.7140,-0.4272,1.6250,-0.0040,1.680
11.7180,-0.4035,1.5027,0.3562,1.596
11.7180,-0.4035,1.5027,0.3562,1.596
11.7190,-0.4035,1.5027,0.3562,1.596
11.7190,-0.4035,1.5027,0.3562,1.596
11.7340,-0.5518,1.1236,1.0281,1.620
11.7340,-0.5518,1.1236,1.0281,1.620
11.7500,-0.7804,0.5297,0.1359,0.953
11.7510,-0.7804,0.5297,0.1359,0.953
11.7510,-0.7804,0.5297,0.1359,0.953
11.7510,-0.7804,0.5297,0.1359,0.953
11.7670,-0.8588,0.5248,-1.1401,1.521
11.7670,-0.8588,0.5248,-1.1401,1.521
11.7670,-0.8588,0.5248,-1.1401,1.521
11.7680,-0.8588,0.5248,-1.1401,1.521
11.7840,-0.7099,0.9857,-0.7180,1.411
11.7840,-0.7099,0.9857,-0.7180,1.411
11.8020,-1.1670,1.5002,-0.5382,1.975
11.8020,-1.1670,1.5002,-0.5382,1.975
11.8020,-1.1670,1.5002,-0.5382,1.975
11.8020,-1.1670,1.5002,-0.5382,1.975
11.8170,-3.0148,1.6299,-1.1916,3.628
11.8170,-3.0148,1.6299,-1.1916,3.628
11.8340,-5.7128,0.7140,-1.7887,6.029
11.8340,-5.7128,0.7140,-1.7887,6.029
11.8340,-5.7128,0.7140,-1.7887,6.029
11.8340,-5.7128,0.7140,-1.7887,6.029
11.8510,-6.0997,0.2024,-1.4619,6.276
11.8510,-5.9854,0.0035,-0.9730,6.064
11.8520,-5.9854,0.0035,-0.9730,6.064
11.8520,-5.9854,0.0035,-0.9730,6.064
11.8670,-4.5919,-1.2360,0.6815,4.804
11.8670,-4.5919,-1.2360,0.6815,4.804
11.8840,-3.7459,-1.9805,0.3545,4.252
11.8840,-3.7459,-1.9805,0.3545,4.252
11.8840,-3.7459,-1.9805,0.3545,4.252
11.8840,-3.7459,-1.9805,0.3545,4.252
11.9020,-3.2822,-3.0919,0.2744,4.517
11.9020,-3.2822,-3.0919,0.2744,4.517
11.9020,-3.2822,-3.0919,0.2744,4.517
11.9020,-3.2822,-3.0919,0.2744,4.517
11.9170,-2.5794,-3.6549,-0.1862,4.477
11.9180,-2.5794,-3.6549,-0.1862,4.477
11.9350,-0.9641,-4.0661,-0.1859,4.183
11.9350,-0.9641,-4.0661,-0.1859,4.183
11.9350,-0.9641,-4.0661,-0.1859,4.183
11.9360,-0.9641,-4.0661,-0.1859,4.183
11.9500,0.6332,-3.9414,0.1385,3.994
11.9510,0.6332,-3.9414,0.1385,3.994
11.9510,0.6332,-3.9414,0.1385,3.994
11.9510,0.6332,-3.9414,0.1385,3.994
11.9680,2.2035,-3.3593,1.1534,4.180
11.9680,2.2035,-3.3593,1.1534,4.180
11.9840,-1.8037,-1.0100,3.9001,4.414
11.9840,-1.8037,-1.0100,3.9001,4.414
11.9840,-1.8037,-1.0100,3.9001,4.414
11.9840,-1.8037,-1.0100,3.9001,4.414
12.0030,-4.1054,-0.0481,3.6749,5.510
12.0030,-4.1054,-0.0481,3.6749,5.510
12.0030,-4.1054,-0.0481,3.6749,5.510
12.0040,-4.1054,-0.0481,3.6749,5.510
12.0170,-4.7223,-0.3666,2.6324,5.419
12.0170,-4.7223,-0.3666,2.6324,5.419
12.0340,-4.7603,-0.8902,1.1917,4.987
12.0340,-4.6348,-0.9494,0.8052,4.799
12.0340,-4.6348,-0.9494,0.8052,4.799
12.0340,-4.6348,-0.9494,0.8052,4.799
12.0500,-3.7491,-0.9126,-0.6077,3.906
12.0510,-3.7491,-0.9126,-0.6077,3.906
12.0670,-1.8682,-0.3958,-3.4955,3.983
12.0680,-1.3024,-0.2333,-4.7071,4.889
12.0680,-1.3024,-0.2333,-4.7071,4.889
12.0680,-1.3024,-0.2333,-4.7071,4.889
12.0840,-0.8394,0.2109,-6.8235,6.878
12.0840,-0.8394,0.2109,-6.8235,6.878
12.0840,-0.8394,0.2109,-6.8235,6.878
12.0840,-0.8394,0.2109,-6.8235,6.878
12.1030,-2.9487,0.4490,-2.5450,3.921
12.1030,-2.9487,0.4490,-2.5450,3.921
12.1030,-2.9487,0.4490,-2.5450,3.921
12.1030,-2.9487,0.4490,-2.5450,3.921
12.1170,-4.3566,-1.4130,1.0928,4.709
12.1170,-4.3566,-1.4130,1.0928,4.709
12.1340,-6.2749,-5.4693,16.6632,18.627
12.1340,-6.2749,-5.4693,16.6632,18.627
12.1340,-6.2749,-5.4693,16.6632,18.627
12.1340,-6.2749,-5.4693,16.6632,18.627
12.1510,4.7747,-3.4086,1.3265,6.015
12.1510,4.7747,-3.4086,1.3265,6.015
12.1690,6.7105,-1.7815,0.2522,6.948
12.1690,6.7105,-1.7815,0.2522,6.948
12.1700,6.4770,-1.5830,-0.1727,6.670
12.1700,6.4770,-1.5830,-0.1727,6.670
12.1840,5.0017,-0.6487,-2.3803,5.577
12.1840,5.0017,-0.6487,-2.3803,5.577
12.1850,5.0017,-0.6487,-2.3803,5.577
12.1850,5.0017,-0.6487,-2.3803,5.577
12.2030,3.0952,-0.2007,-2.5914,4.042
12.2160,2.7418,-0.4933,-1.5520,3.189
12.2190,2.8664,-1.2459,0.0671,3.126
12.2190,2.8664,-1.2459,0.0671,3.126
12.2190,2.8664,-1.2459,0.0671,3.126
12.2190,2.8664,-1.2459,0.0671,3.126
12.2340,4.8551,-1.8971,-1.2306,5.356
12.2340,4.8551,-1.8971,-1.2306,5.356
12.2510,4.8788,-1.2241,-2.7261,5.721
12.2510,4.8788,-1.2241,-2.7261,5.721
12.2510,4.8788,-1.2241,-2.7261,5.721
12.2510,4.8788,-1.2241,-2.7261,5.721
12.2670,3.7274,-0.0875,-2.4861,4.481
12.2680,3.7274,-0.0875,-2.4861,4.481
12.2680,3.7274,-0.0875,-2.4861,4.481
12.2680,3.7274,-0.0875,-2.4861,4.481
12.2840,2.5144,1.0141,-1.3343,3.022
12.2860,2.3275,1.2999,-0.7615,2.773
12.3020,2.3122,1.9966,0.4565,3.089
12.3020,2.3122,1.9966,0.4565,3.089
12.3030,2.3122,1.9966,0.4565,3.089
12.3030,2.3122,1.9966,0.4565,3.089
12.3180,2.9528,2.5281,0.3153,3.900
12.3180,3.1589,2.7709,0.0826,4.203
12.3180,3.1589,2.7709,0.0826,4.203
12.3180,3.1589,2.7709,0.0826,4.203
12.3340,3.5754,3.4270,-0.4542,4.973
12.3340,3.5754,3.4270,-0.4542,4.973
12.3510,4.1265,5.2388,-1.1707,6.771
12.3510,4.1265,5.2388,-1.1707,6.771
12.3510,4.1265,5.2388,-1.1707,6.771
12.3510,4.1265,5.2388,-1.1707,6.771
12.3680,4.9970,6.3791,-2.1248,8.377
12.3680,4.9970,6.3791,-2.1248,8.377
12.3680,4.9970,6.3791,-2.1248,8.377
12.3680,4.9970,6.3791,-2.1248,8.377
12.3840,5.1280,6.6722,-3.5288,9.125
12.3840,5.1280,6.6722,-3.5288,9.125
12.4020,4.4136,5.7965,-6.2557,9.603
12.4030,4.4136,5.7965,-6.2557,9.603
12.4030,4.4136,5.7965,-6.2557,9.603
12.4030,4.4136,5.7965,-6.2557,9.603
12.4180,5.4543,5.4680,-4.7459,9.065
12.4200,6.1664,5.4767,-3.4010,8.921
12.4200,6.1664,5.4767,-3.4010,8.921
12.4200,6.1664,5.4767,-3.4010,8.921
12.4340,8.6588,4.9348,1.4535,10.072
12.4340,8.6588,4.9348,1.4535,10.072
12.4510,9.8007,4.3336,9.6661,14.431
12.4510,9.8007,4.3336,9.6661,14.431
12.4510,9.8007,4.3336,9.6661,14.431
12.4520,9.8007,4.3336,9.6661,14.431
12.4680,0.9854,-3.4424,-10.3475,10.950
12.4680,0.9854,-3.4424,-10.3475,10.950
12.4840,-0.5229,-8.6757,-5.2057,10.131
12.4840,-0.5229,-8.6757,-5.2057,10.131
12.4850,-0.5229,-8.6757,-5.2057,10.131
12.4850,-0.5229,-8.6757,-5.2057,10.131
12.5030,-11.5135,-21.2515,-10.0811,26.188
12.5040,-11.5135,-21.2515,-10.0811,26.188
12.5040,-11.5135,-21.2515,-10.0811,26.188
12.5040,-11.5135,-21.2515,-10.0811,26.188
12.5180,-18.0965,-21.5780,-1.7378,28.215
12.5180,-18.0965,-21.5780,-1.7378,28.215
12.5360,-11.1506,-4.8841,6.6811,13.886
12.5370,-7.7769,-0.4766,5.7662,9.693
12.5370,-7.7769,-0.4766,5.7662,9.693
12.5370,-7.7769,-0.4766,5.7662,9.693
12.5510,-0.6054,6.6493,1.1940,6.783
12.5510,-0.6054,6.6493,1.1940,6.783
12.5520,-0.6054,6.6493,1.1940,6.783
12.5520,-0.6054,6.6493,1.1940,6.783
12.5680,3.1934,6.5872,-0.8105,7.365
12.5680,3.1934,6.5872,-0.8105,7.365
12.5840,3.8298,1.9294,-1.4491,4.527
12.5850,3.8298,1.9294,-1.4491,4.527
12.5850,3.8298,1.9294,-1.4491,4.527
12.5850,3.8298,1.9294,-1.4491,4.527
12.6040,2.4604,-1.2763,-1.6447,3.223
12.6040,2.4604,-1.2763,-1.6447,3.223
12.6040,2.4604,-1.2763,-1.6447,3.223
12.6040,2.4604,-1.2763,-1.6447,3.223
12.6180,1.8785,-2.6637,-1.4214,3.556
12.6180,1.8785,-2.6637,-1.4214,3.556
12.6350,2.0831,-3.3358,-1.4529,4.193
12.6360,2.3241,-3.3756,-1.5811,4.393
12.6360,2.3241,-3.3756,-1.5811,4.393
12.6370,2.3241,-3.3756,-1.5811,4.393
12.6510,2.9354,-3.0812,-2.0667,4.731
12.6510,2.9354,-3.0812,-2.0667,4.731
12.6680,3.1255,-2.0021,-1.9067,4.173
12.6680,3.1255,-2.0021,-1.9067,4.173
12.6680,3.1255,-2.0021,-1.9067,4.173
12.6680,3.1255,-2.0021,-1.9067,4.173
12.6840,2.6514,0.2900,-0.5363,2.721
12.6850,2.6514,0.2900,-0.5363,2.721
12.6850,2.6514,0.2900,-0.5363,2.721
12.6850,2.6514,0.2900,-0.5363,2.721
12.7030,2.4840,2.0131,1.3381,3.466
12.7030,2.3882,1.9277,1.2880,3.328
12.7040,2.3882,1.9277,1.2880,3.328
12.7110,2.2363,1.6048,1.1129,2.969
12.7220,1.9121,0.6777,0.8966,2.218
12.7220,1.8373,0.3316,1.0203,2.128
12.7350,1.9385,0.1724,1.5939,2.516
12.7350,1.9385,0.1724,1.5939,2.516
12.7350,1.9385,0.1724,1.5939,2.516
12.7350,1.9385,0.1724,1.5939,2.516
12.7510,2.2189,0.5544,2.2118,3.182
12.7510,2.2189,0.5544,2.2118,3.182
12.7680,2.0622,0.8576,1.5642,2.727
12.7680,2.0622,0.8576,1.5642,2.727
12.7680,2.0622,0.8576,1.5642,2.727
12.7680,2.0622,0.8576,1.5642,2.727
12.7850,1.2626,1.4669,0.2848,1.956
12.7850,0.8367,1.7305,-0.1108,1.925
12.7850,0.8367,1.7305,-0.1108,1.925
12.7860,0.8367,1.7305,-0.1108,1.925
12.8030,-0.4237,2.5752,-0.7230,2.708
12.8030,-0.4237,2.5752,-0.7230,2.708
12.8180,-1.1145,2.9635,-0.9824,3.315
12.8180,-1.1145,2.9635,-0.9824,3.315
12.8180,-1.1145,2.9635,-0.9824,3.315
12.8180,-1.6283,3.3423,-1.2437,3.920
12.8350,-1.9040,3.8017,-2.4482,4.906
12.8350,-1.9040,3.8017,-2.4482,4.906
12.8350,-1.9040,3.8017,-2.4482,4.906
12.8350,-1.9040,3.8017,-2.4482,4.906
12.8510,-2.5439,3.6187,-2.3490,5.008
12.8510,-2.5439,3.6187,-2.3490,5.008
12.8680,-3.6149,2.7401,-2.0195,4.965
12.8680,-3.6149,2.7401,-2.0195,4.965
12.8680,-3.6149,2.7401,-2.0195,4.965
12.8680,-3.6149,2.7401,-2.0195,4.965
12.8860,-3.3351,2.5324,-0.5220,4.220
12.8860,-3.3351,2.5324,-0.5220,4.220
12.8860,-3.3351,2.5324,-0.5220,4.220
12.8860,-3.3351,2.5324,-0.5220,4.220
12.9030,-3.6066,2.2605,-1.9825,4.696
12.9040,-3.6066,2.2605,-1.9825,4.696
12.9180,-3.9852,2.0215,-1.7695,4.806
12.9180,-3.9852,2.0215,-1.7695,4.806
12.9190,-3.9852,2.0215,-1.7695,4.806
12.9350,-4.3348,1.1139,0.3884,4.492
12.9360,-4.3348,1.1139,0.3884,4.492
12.9360,-4.3348,1.1139,0.3884,4.492
12.9520,-4.8871,-1.1183,2.2756,5.506
12.9520,-4.8871,-1.1183,2.2756,5.506
12.9520,-4.8871,-1.1183,2.2756,5.506
12.9520,-4.8871,-1.1183,2.2756,5.506
12.9680,-4.3394,-3.3371,4.0356,6.801
12.9690,-4.3394,-3.3371,4.0356,6.801
12.9690,-4.3394,-3.3371,4.0356,6.801
12.9850,-4.5570,-4.3636,3.0522,7.009
12.9850,-4.5570,-4.3636,3.0522,7.009
12.9850,-4.5570,-4.3636,3.0522,7.009
13.0030,-5.6823,-5.3635,1.5724,7.970
13.0030,-5.6823,-5.3635,1.5724,7.970
13.0030,-5.6823,-5.3635,1.5724,7.970
13.0040,-5.6823,-5.3635,1.5724,7.970
13.0190,-6.9678,-7.0779,0.4347,9.942
13.0190,-6.9678,-7.0779,0.4347,9.942
13.0360,-6.5321,-7.4463,-0.2278,9.908
13.0360,-5.1066,-6.1023,-0.2071,7.960
13.0370,-5.1066,-6.1023,-0.2071,7.960
13.0370,-5.1066,-6.1023,-0.2071,7.960
13.0510,-2.3084,-3.3497,0.3963,4.087
13.0520,-2.3084,-3.3497,0.3963,4.087
13.0520,-2.3084,-3.3497,0.3963,4.087
13.0520,-2.3084,-3.3497,0.3963,4.087
13.0680,-0.9310,-1.5581,2.5519,3.132
13.0680,-0.9310,-1.5581,2.5519,3.132
13.0850,-2.0891,-1.3621,3.1997,4.057
13.0850,-2.0891,-1.3621,3.1997,4.057
13.0850,-2.0891,-1.3621,3.1997,4.057
13.0860,-2.0891,-1.3621,3.1997,4.057
13.1030,-2.2321,-1.0033,-0.3497,2.472
13.1030,-2.2321,-1.0033,-0.3497,2.472
13.1040,-2.2321,-1.0033,-0.3497,2.472
13.1040,-2.2321,-1.0033,-0.3497,2.472
13.1210,-1.2657,-0.6236,-4.1165,4.352
13.1210,-1.2657,-0.6236,-4.1165,4.352
13.1350,-0.5894,-0.2747,-7.1554,7.185
13.1350,-0.5894,-0.2747,-7.1554,7.185
13.1350,-0.5894,-0.2747,-7.1554,7.185
13.1360,-0.5894,-0.2747,-7.1554,7.185
13.1520,-0.8689,-0.4660,-9.1876,9.240
13.1530,-0.8689,-0.4660,-9.1876,9.240
13.1680,-3.0904,-1.8517,-5.5073,6.581
13.1680,-3.0904,-1.8517,-5.5073,6.581
13.1690,-3.0904,-1.8517,-5.5073,6.581
13.1690,-3.0904,-1.8517,-5.5073,6.581
13.1850,-6.2263,-4.5679,4.2494,8.814
13.1860,-6.2263,-4.5679,4.2494,8.814
13.1860,-6.2263,-4.5679,4.2494,8.814
13.1860,-6.2263,-4.5679,4.2494,8.814
13.2040,3.1240,-6.5117,9.8245,12.194
13.2040,3.1240,-6.5117,9.8245,12.194
13.2050,3.1240,-6.5117,9.8245,12.194
13.2050,3.1240,-6.5117,9.8245,12.194
13.2180,5.6869,-7.3082,-0.7364,9.289
13.2270,5.4958,-6.5924,-3.0174,9.098
13.2350,6.3591,-4.3928,-4.9762,9.192
13.2360,6.3591,-4.3928,-4.9762,9.192
13.2360,6.3591,-4.3928,-4.9762,9.192
13.2360,6.3591,-4.3928,-4.9762,9.192
13.2520,4.9541,-1.5764,-2.9577,5.981
13.2530,4.9541,-1.5764,-2.9577,5.981
13.2680,3.6939,0.2838,0.1645,3.708
13.2690,3.6939,0.2838,0.1645,3.708
13.2690,3.6939,0.2838,0.1645,3.708
13.2690,3.6939,0.2838,0.1645,3.708
13.2850,6.0797,1.1703,-0.5637,6.217
13.2850,6.0797,1.1703,-0.5637,6.217
13.2860,6.0797,1.1703,-0.5637,6.217
13.3040,6.5062,0.7046,-1.1626,6.647
13.3060,6.1813,0.6941,-1.2424,6.343
13.3060,6.1813,0.6941,-1.2424,6.343
13.3190,5.4131,0.9901,-1.6332,5.740
13.3190,5.4131,0.9901,-1.6332,5.740
13.3200,5.4131,0.9901,-1.6332,5.740
13.3200,5.4131,0.9901,-1.6332,5.740
13.3360,4.4785,1.8225,-1.7994,5.159
13.3360,4.4785,1.8225,-1.7994,5.159
13.3520,4.7088,2.3010,-1.0009,5.336
13.3520,4.9218,2.3762,-0.7098,5.511
13.3520,4.9218,2.3762,-0.7098,5.511
13.3530,4.9218,2.3762,-0.7098,5.511
13.3690,5.5954,2.1920,-0.3293,6.018
13.3690,5.5954,2.1920,-0.3293,6.018
13.3690,5.5954,2.1920,-0.3293,6.018
13.3690,5.5954,2.1920,-0.3293,6.018
13.3850,6.0925,1.4774,-0.1026,6.270
13.3860,6.0925,1.4774,-0.1026,6.270
13.4030,6.6255,1.6383,-0.5335,6.846
13.4040,6.6255,1.6383,-0.5335,6.846
13.4040,6.6255,1.6383,-0.5335,6.846
13.4040,6.6255,1.6383,-0.5335,6.846
13.4200,6.6684,2.3739,-0.8424,7.128
13.4200,6.5319,3.3898,-1.3139,7.475
13.4210,6.5319,3.3898,-1.3139,7.475
13.4210,6.5319,3.3898,-1.3139,7.475
13.4360,6.1138,4.5605,-1.7275,7.821
13.4360,6.1138,4.5605,-1.7275,7.821
13.4520,5.1284,4.9736,-1.9399,7.403
13.4520,5.1284,4.9736,-1.9399,7.403
13.4530,5.1284,4.9736,-1.9399,7.403
13.4530,5.1284,4.9736,-1.9399,7.403
13.4690,3.9879,4.7772,-2.3664,6.658
13.4690,3.5968,4.6402,-2.6173,6.428
13.4850,2.4774,4.2876,-3.1915,5.891
13.4860,2.4774,4.2876,-3.1915,5.891
13.4860,2.4774,4.2876,-3.1915,5.891
13.4860,2.4774,4.2876,-3.1915,5.891
13.5040,2.6344,4.2912,-4.2453,6.586
13.5040,2.6344,4.2912,-4.2453,6.586
13.5040,2.6344,4.2912,-4.2453,6.586
13.5040,2.6344,4.2912,-4.2453,6.586
13.5180,3.1884,3.8233,-4.2940,6.574
13.5190,3.1884,3.8233,-4.2940,6.574
13.5360,1.9053,2.8917,-1.1348,3.644
13.5370,0.0593,2.1393,2.1519,3.035
13.5370,0.0593,2.1393,2.1519,3.035
13.5370,0.0593,2.1393,2.1519,3.035
13.5520,-5.5297,-2.8142,-0.9366,6.275
13.5520,-5.5297,-2.8142,-0.9366,6.275
13.5520,-5.5297,-2.8142,-0.9366,6.275
13.5680,-5.8694,-11.7301,-8.6948,15.737
13.5690,-5.8694,-11.7301,-8.6948,15.737
13.5690,-7.0873,-14.9325,-5.7263,17.493
13.5850,-14.9728,-21.6144,-2.4444,26.407
13.5860,-14.9728,-21.6144,-2.4444,26.407
13.5860,-14.9728,-21.6144,-2.4444,26.407
13.5860,-14.9728,-21.6144,-2.4444,26.407
13.6030,-8.4607,-7.2163,1.6953,11.249
13.6040,-8.4607,-7.2163,1.6953,11.249
13.6040,-8.4607,-7.2163,1.6953,11.249
13.6040,-8.4607,-7.2163,1.6953,11.249
13.6180,0.6745,1.6684,1.1650,2.144
13.6190,0.6745,1.6684,1.1650,2.144
13.6350,5.0630,4.5642,0.4069,6.829
13.6350,5.0630,4.5642,0.4069,6.829
13.6360,5.0630,4.5642,0.4069,6.829
13.6360,5.0630,4.5642,0.4069,6.829
13.6520,6.6327,5.5821,1.2031,8.752
13.6520,6.6327,5.5821,1.2031,8.752
13.6690,6.1689,4.2410,1.5102,7.637
13.6690,6.1689,4.2410,1.5102,7.637
13.6690,6.1689,4.2410,1.5102,7.637
13.6700,6.1689,4.2410,1.5102,7.637
13.6850,4.3178,1.0563,0.3250,4.457
13.6860,4.3178,1.0563,0.3250,4.457
13.6860,4.3178,1.0563,0.3250,4.457
13.6860,4.3178,1.0563,0.3250,4.457
13.7040,2.9350,-2.1906,-0.7406,3.737
13.7040,2.3667,-3.5134,-1.1482,4.389
13.7050,2.3667,-3.5134,-1.1482,4.389
13.7050,2.3667,-3.5134,-1.1482,4.389
13.7180,0.8202,-7.0473,-2.0637,7.389
13.7190,0.8202,-7.0473,-2.0637,7.389
13.7350,0.4570,-6.9332,-2.3470,7.334
13.7420,0.6441,-4.9899,-2.3995,5.574
13.7430,0.6441,-4.9899,-2.3995,5.574
13.7430,0.6441,-4.9899,-2.3995,5.574
13.7520,0.8892,-3.6532,-2.3236,4.420
13.7530,0.8892,-3.6532,-2.3236,4.420
13.7690,1.7413,0.7844,-1.9779,2.749
13.7690,1.7413,0.7844,-1.9779,2.749
13.7690,1.7413,0.7844,-1.9779,2.749
13.7690,1.7413,0.7844,-1.9779,2.749
13.7850,1.4573,2.9423,-1.6968,3.696
13.7860,1.4573,2.9423,-1.6968,3.696
13.8050,0.0999,4.1799,-0.2177,4.187
13.8050,-0.3706,4.1115,0.0015,4.128
13.8050,-0.3706,4.1115,0.0015,4.128
13.8060,-0.3706,4.1115,0.0015,4.128
13.8230,-1.7164,3.2342,0.3498,3.678
13.8240,-1.7164,3.2342,0.3498,3.678
13.8240,-1.7164,3.2342,0.3498,3.678
13.8240,-1.7164,3.2342,0.3498,3.678
13.8380,-2.2579,1.5007,0.2349,2.721
13.8380,-2.2579,1.5007,0.2349,2.721
13.8530,-1.5797,1.1625,0.3671,1.995
13.8530,-1.2785,1.2292,0.5139,1.847
13.8530,-1.2785,1.2292,0.5139,1.847
13.8540,-1.2785,1.2292,0.5139,1.847
13.8700,-0.2701,1.7305,0.7925,1.922
13.8700,-0.2701,1.7305,0.7925,1.922
13.8870,0.6780,2.3004,0.7228,2.505
13.8880,0.8854,2.4211,0.4921,2.624
13.8880,0.8854,2.4211,0.4921,2.624
13.8880,0.8854,2.4211,0.4921,2.624
13.9060,0.8014,2.3588,-0.6269,2.569
13.9080,0.4765,2.2073,-1.1663,2.542
13.9090,0.4765,2.2073,-1.1663,2.542
13.9090,0.4765,2.2073,-1.1663,2.542
13.9290,-0.8828,1.6806,-3.0878,3.625
13.9290,-0.8828,1.6806,-3.0878,3.625
13.9300,-0.8828,1.6806,-3.0878,3.625
13.9300,-1.1746,1.6394,-3.2177,3.797
13.9360,-1.4327,1.6043,-3.1956,3.852
13.9370,-1.4327,1.6043,-3.1956,3.852
13.9530,-2.0065,1.2634,-2.2591,3.275
13.9540,-2.0065,1.2634,-2.2591,3.275
13.9690,-2.4242,1.2777,-0.6226,2.810
13.9700,-2.4242,1.2777,-0.6226,2.810
13.9700,-2.4242,1.2777,-0.6226,2.810
13.9710,-2.6950,1.3523,-0.3253,3.033
13.9870,-3.7532,1.4592,-0.5606,4.066
13.9870,-3.7532,1.4592,-0.5606,4.066
14.0070,-5.8894,1.6593,-1.8149,6.382
14.0070,-6.4350,1.6244,-1.2106,6.746
14.0070,-6.4350,1.6244,-1.2106,6.746
14.0080,-6.4350,1.6244,-1.2106,6.746
14.0320,-5.5831,1.3090,1.9091,6.044
14.0320,-5.5831,1.3090,1.9091,6.044
14.0330,-5.5831,1.3090,1.9091,6.044
14.0330,-5.5831,1.3090,1.9091,6.044
14.0330,-5.5831,1.3090,1.9091,6.044
14.0330,-5.5831,1.3090,1.9091,6.044
14.0410,-4.9098,1.1730,1.8522,5.377
14.0530,-3.0761,0.1025,2.2950,3.839
14.0530,-3.0761,0.1025,2.2950,3.839
14.0530,-3.0761,0.1025,2.2950,3.839
14.0700,-1.1916,-1.6326,3.3481,3.911
14.0700,-0.7007,-2.0657,3.0634,3.761
14.0870,-0.2824,-2.3667,1.9614,3.087
14.0870,-0.2824,-2.3667,1.9614,3.087
14.0870,-0.2824,-2.3667,1.9614,3.087
14.0880,-0.2824,-2.3667,1.9614,3.087
14.1060,-0.6770,-2.5979,1.9780,3.335
14.1060,-0.6770,-2.5979,1.9780,3.335
14.1060,-0.6770,-2.5979,1.9780,3.335
14.1070,-0.6770,-2.5979,1.9780,3.335
14.1280,-2.0411,-4.2792,0.8939,4.825
14.1280,-2.4329,-5.0475,0.6400,5.640
14.1280,-2.4329,-5.0475,0.6400,5.640
14.1280,-2.4329,-5.0475,0.6400,5.640
14.1370,-2.4329,-5.0475,0.6400,5.640
14.1370,-2.4329,-5.0475,0.6400,5.640
14.1530,-3.1373,-8.4835,-1.1925,9.123
14.1540,-3.1373,-8.4835,-1.1925,9.123
14.1700,-1.9314,-5.4729,0.4330,5.820
14.1700,-1.9314,-5.4729,0.4330,5.820
14.1700,-1.9314,-5.4729,0.4330,5.820
14.1700,-1.9314,-5.4729,0.4330,5.820
14.1880,-3.9345,-0.4757,6.5423,7.649
14.1880,-3.9345,-0.4757,6.5423,7.649
14.1880,-3.9345,-0.4757,6.5423,7.649
14.1880,-3.9345,-0.4757,6.5423,7.649
14.2070,-3.4669,-0.0762,4.3283,5.546
14.2080,-3.4710,-0.1114,3.4434,4.890
14.2080,-3.4710,-0.1114,3.4434,4.890
14.2270,-3.9004,-0.1259,-0.0586,3.903
14.2270,-3.9004,-0.1259,-0.0586,3.903
14.2270,-3.9004,-0.1259,-0.0586,3.903
14.2360,-3.5513,-0.1246,-2.0087,4.082
14.2360,-3.5513,-0.1246,-2.0087,4.082
14.2540,-2.5159,-0.2803,-4.4273,5.100
14.2540,-2.5159,-0.2803,-4.4273,5.100
14.2540,-2.5159,-0.2803,-4.4273,5.100
14.2670,-1.1016,0.0990,-5.4772,5.588
14.2700,-0.6592,0.2490,-5.5177,5.563
14.2700,-0.6592,0.2490,-5.5177,5.563
14.2700,-0.6592,0.2490,-5.5177,5.563
14.2710,-0.6592,0.2490,-5.5177,5.563
14.2870,-0.6499,0.3710,-4.2290,4.295
14.2870,-0.6499,0.3710,-4.2290,4.295
14.3070,-3.1555,-2.0428,0.5712,3.802
14.3090,-3.1555,-2.0428,0.5712,3.802
14.3090,-3.1555,-2.0428,0.5712,3.802
14.3090,-3.1555,-2.0428,0.5712,3.802
14.3280,-0.2132,-6.3234,9.2629,11.217
14.3290,-0.2132,-6.3234,9.2629,11.217
14.3290,-0.2132,-6.3234,9.2629,11.217
14.3290,2.6215,-6.8426,10.5305,12.829
14.3370,4.9317,-7.2629,7.2965,11.415
14.3370,4.9317,-7.2629,7.2965,11.415
14.3540,5.9525,-5.4063,-3.8152,8.900
14.3540,5.9525,-5.4063,-3.8152,8.900
14.3550,5.9525,-5.4063,-3.8152,8.900
14.3550,5.9525,-5.4063,-3.8152,8.900
14.3710,5.5617,-3.0982,-3.3335,7.186
14.3710,5.5617,-3.0982,-3.3335,7.186
14.3880,1.7445,-0.9193,0.4920,2.032
14.3880,1.7445,-0.9193,0.4920,2.032
14.3880,1.7445,-0.9193,0.4920,2.032
14.3880,1.7445,-0.9193,0.4920,2.032
14.4070,2.4428,0.4964,-0.0272,2.493
14.4080,2.4428,0.4964,-0.0272,2.493
14.4080,2.4428,0.4964,-0.0272,2.493
14.4080,2.4428,0.4964,-0.0272,2.493
14.4310,6.8154,-0.8421,-1.5052,7.030
14.4320,6.8154,-0.8421,-1.5052,7.030
14.4320,6.8154,-0.8421,-1.5052,7.030
14.4320,6.8154,-0.8421,-1.5052,7.030
14.4370,6.8154,-0.8421,-1.5052,7.030
14.4380,6.3913,-0.8967,-1.5379,6.635
14.4540,5.1660,-0.2701,-1.5554,5.402
14.4540,5.1660,-0.2701,-1.5554,5.402
14.4700,4.7583,0.8793,-1.1502,4.974
14.4710,4.6309,1.2673,-1.0287,4.910
14.4710,4.6309,1.2673,-1.0287,4.910
14.4710,4.6309,1.2673,-1.0287,4.910
14.4860,4.9030,2.2115,-0.2516,5.385
14.4870,4.9030,2.2115,-0.2516,5.385
14.5050,5.6204,2.3052,-0.0724,6.075
14.5050,5.6204,2.3052,-0.0724,6.075
14.5060,5.6204,2.3052,-0.0724,6.075
14.5060,5.6204,2.3052,-0.0724,6.075
14.5200,6.4792,1.6203,-0.4577,6.694
14.5200,6.4792,1.6203,-0.4577,6.694
14.5200,6.4792,1.6203,-0.4577,6.694
14.5200,6.4792,1.6203,-0.4577,6.694
14.5380,6.8356,2.0222,-1.5473,7.294
14.5380,6.8356,2.0222,-1.5473,7.294
14.5530,6.1818,3.0504,-2.0583,7.194
14.5530,6.1818,3.0504,-2.0583,7.194
14.5540,6.1818,3.0504,-2.0583,7.194
14.5540,6.1818,3.0504,-2.0583,7.194
14.5700,4.9072,3.7889,-2.1088,6.549
14.5700,4.3135,3.8810,-2.0339,6.149
14.5860,2.7647,3.5538,-1.7482,4.830
14.5860,2.7647,3.5538,-1.7482,4.830
14.5870,2.7647,3.5538,-1.7482,4.830
14.5870,2.7647,3.5538,-1.7482,4.830
14.6050,1.5293,2.7122,-1.8856,3.640
14.6060,1.5293,2.7122,-1.8856,3.640
14.6060,1.5293,2.7122,-1.8856,3.640
14.6060,1.5293,2.7122,-1.8856,3.640
14.6220,1.0722,2.4835,-1.8262,3.264
14.6220,1.0722,2.4835,-1.8262,3.264
14.6230,1.0722,2.4835,-1.8262,3.264
14.6380,1.1275,2.6320,-1.9131,3.444
14.6380,1.1275,2.6320,-1.9131,3.444
14.6380,1.2532,2.7469,-2.2023,3.737
14.6530,1.3829,3.0168,-3.2864,4.671
14.6540,1.3829,3.0168,-3.2864,4.671
14.6540,1.3829,3.0168,-3.2864,4.671
14.6710,-0.9718,2.6749,-1.7668,3.350
14.6720,-2.5498,2.3587,0.5150,3.511
14.6720,-2.5498,2.3587,0.5150,3.511
14.6880,-5.9870,-0.1789,7.6966,9.753
14.6880,-5.9870,-0.1789,7.6966,9.753
14.6880,-5.9870,-0.1789,7.6966,9.753
14.6890,-5.9870,-0.1789,7.6966,9.753
14.7070,1.6230,-5.9043,0.3241,6.132
14.7070,1.6230,-5.9043,0.3241,6.132
14.7080,1.6230,-5.9043,0.3241,6.132
14.7080,1.6230,-5.9043,0.3241,6.132
14.7260,-2.2443,-13.3580,-2.5713,13.787
14.7260,-2.2443,-13.3580,-2.5713,13.787
14.7260,-2.2443,-13.3580,-2.5713,13.787
14.7370,-5.7324,-13.3628,-1.4675,14.614
14.7370,-5.7324,-13.3628,-1.4675,14.614
14.7540,-6.8616,-6.3314,-1.7681,9.502
14.7540,-6.8616,-6.3314,-1.7681,9.502
14.7550,-6.8616,-6.3314,-1.7681,9.502
14.7700,-4.4105,-1.9345,1.5182,5.050
14.7700,-4.4105,-1.9345,1.5182,5.050
14.7710,-4.4105,-1.9345,1.5182,5.050
14.7820,-0.8572,1.6806,0.6997,2.012
14.7900,0.1710,2.6909,1.0777,2.904
14.7900,0.1710,2.6909,1.0777,2.904
14.7900,0.1710,2.6909,1.0777,2.904
14.7910,0.1710,2.6909,1.0777,2.904
14.8050,1.9313,3.7165,1.7942,4.556
14.8060,1.9313,3.7165,1.7942,4.556
14.8200,2.8134,2.6028,1.7595,4.217
14.8200,2.8134,2.6028,1.7595,4.217
14.8370,3.6293,0.1889,0.7578,3.712
14.8370,3.6293,0.1889,0.7578,3.712
14.8370,3.6293,0.1889,0.7578,3.712
14.8380,3.6293,0.1889,0.7578,3.712
14.8530,3.7399,-1.7374,-0.3054,4.135
14.8540,3.7399,-1.7374,-0.3054,4.135
14.8540,3.7399,-1.7374,-0.3054,4.135
14.8540,3.7399,-1.7374,-0.3054,4.135
14.8710,3.2772,-3.9456,-1.2980,5.291
14.8710,3.2772,-3.9456,-1.2980,5.291
14.8870,2.7853,-4.2725,-1.2723,5.257
14.8870,2.7853,-4.2725,-1.2723,5.257
14.8880,2.7853,-4.2725,-1.2723,5.257
14.8880,2.7943,-3.9445,-1.1995,4.981
14.9050,3.0906,-2.1919,-1.2723,3.997
14.9050,3.0906,-2.1919,-1.2723,3.997
14.9060,3.0906,-2.1919,-1.2723,3.997
14.9060,3.0906,-2.1919,-1.2723,3.997
14.9230,2.6645,-0.3658,-1.8413,3.259
14.9230,2.6645,-0.3658,-1.8413,3.259
14.9440,2.3957,-0.0911,-1.8921,3.054
14.9450,2.0765,0.1188,-1.9611,2.859
14.9450,2.0765,0.1188,-1.9611,2.859
14.9460,2.0765,0.1188,-1.9611,2.859
14.9560,0.6629,1.3319,-3.3226,3.641
14.9560,0.4463,1.6648,-3.4774,3.881
14.9560,0.4463,1.6648,-3.4774,3.881
14.9700,-0.2468,2.7907,-1.1340,3.022
14.9700,-0.2468,2.7907,-1.1340,3.022
14.9700,-0.2468,2.7907,-1.1340,3.022
14.9870,-0.9050,3.3509,-0.1609,3.475
14.9870,-0.9050,3.3509,-0.1609,3.475
14.9870,-0.9050,3.3509,-0.1609,3.475
14.9870,-0.9050,3.3509,-0.1609,3.475
15.0060,-1.5671,2.9513,-0.6218,3.399
15.0060,-1.5671,2.9513,-0.6218,3.399
15.0200,-1.6692,2.6310,-0.7757,3.211
15.0200,-1.6692,2.6310,-0.7757,3.211
15.0200,-1.6692,2.6310,-0.7757,3.211
15.0200,-1.6692,2.6310,-0.7757,3.211
15.0370,-1.7010,2.1225,0.0408,2.720
15.0370,-1.7965,1.8615,0.4543,2.627
15.0380,-1.7965,1.8615,0.4543,2.627
15.0540,-1.9143,1.1189,1.6498,2.764
15.0540,-1.9143,1.1189,1.6498,2.764
15.0540,-1.9143,1.1189,1.6498,2.764
15.0700,-1.5704,1.0210,1.6538,2.499
15.0700,-1.5704,1.0210,1.6538,2.499
15.0710,-1.5704,1.0210,1.6538,2.499
15.0710,-1.3236,1.1399,1.3391,2.201
15.0870,-0.5333,1.6838,0.1673,1.774
15.0870,-0.5333,1.6838,0.1673,1.774
15.1060,-0.3750,2.1531,-1.3382,2.563
15.1060,-0.3750,2.1531,-1.3382,2.563
15.1060,-0.3750,2.1531,-1.3382,2.563
15.1060,-0.3750,2.1531,-1.3382,2.563
15.1200,-0.9793,1.9049,-1.4829,2.605
15.1200,-0.9793,1.9049,-1.4829,2.605
15.1200,-0.9793,1.9049,-1.4829,2.605
15.1200,-0.9793,1.9049,-1.4829,2.605
15.1370,-1.7114,1.1684,-1.0838,2.339
15.1370,-1.7114,1.1684,-1.0838,2.339
15.1530,-2.0568,0.5848,-0.7741,2.274
15.1540,-2.0568,0.5848,-0.7741,2.274
15.1540,-2.0568,0.5848,-0.7741,2.274
15.1540,-2.0568,0.5848,-0.7741,2.274
15.1710,-2.1144,0.5574,-0.6900,2.293
15.1710,-2.1144,0.5574,-0.6900,2.293
15.1720,-2.2112,0.5379,-0.5414,2.339
15.1720,-2.2112,0.5379,-0.5414,2.339
15.1870,-2.5379,0.3730,-0.3295,2.586
15.1870,-2.5379,0.3730,-0.3295,2.586
15.2060,-3.3482,-0.0186,0.4459,3.378
15.2060,-3.4282,-0.0433,0.6050,3.481
15.2070,-3.4282,-0.0433,0.6050,3.481
15.2070,-3.4282,-0.0433,0.6050,3.481
15.2200,-3.4101,0.0131,0.5619,3.456
15.2210,-3.4101,0.0131,0.5619,3.456
15.2210,-3.4101,0.0131,0.5619,3.456
15.2380,-3.0650,0.4498,0.1013,3.099
15.2390,-3.0557,0.5501,-0.0182,3.105
15.2390,-3.0557,0.5501,-0.0182,3.105
15.2530,-3.2778,0.6984,-0.2319,3.359
15.2540,-3.3987,0.6817,-0.2753,3.477
15.2540,-3.3987,0.6817,-0.2753,3.477
15.2540,-3.3987,0.6817,-0.2753,3.477
15.2700,-4.0764,0.5648,-0.2171,4.121
15.2700,-4.0764,0.5648,-0.2171,4.121
15.2870,-4.7541,0.1251,0.0483,4.756
15.2880,-4.7905,-0.1198,0.3700,4.806
15.2880,-4.7905,-0.1198,0.3700,4.806
15.2970,-4.7281,-0.3839,0.7060,4.796
15.3040,-4.3329,-0.9944,1.1487,4.592
15.3040,-4.3329,-0.9944,1.1487,4.592
15.3040,-4.3329,-0.9944,1.1487,4.592
15.3040,-4.3329,-0.9944,1.1487,4.592
15.3220,-3.5692,-1.9859,1.3695,4.308
15.3220,-3.5692,-1.9859,1.3695,4.308
15.3230,-3.5692,-1.9859,1.3695,4.308
15.3380,-3.2689,-3.0909,1.5649,4.763
15.3380,-3.2689,-3.0909,1.5649,4.763
15.3380,-3.2689,-3.0909,1.5649,4.763
15.3530,-3.0748,-5.2702,1.6644,6.324
15.3540,-3.0748,-5.2702,1.6644,6.324
15.3540,-3.0748,-5.2702,1.6644,6.324
15.3540,-3.0748,-5.2702,1.6644,6.324
15.3700,-1.8624,-7.7323,1.0280,8.020
15.3710,-1.8624,-7.7323,1.0280,8.020
15.3880,0.5230,-7.8551,0.6478,7.899
15.3880,0.5230,-7.8551,0.6478,7.899
15.3880,1.5254,-7.0210,0.9535,7.248
15.3880,1.5254,-7.0210,0.9535,7.248
15.4060,2.6679,-3.9408,2.0057,5.164
15.4060,2.6679,-3.9408,2.0057,5.164
15.4060,2.6679,-3.9408,2.0057,5.164
15.4060,2.6679,-3.9408,2.0057,5.164
15.4210,-0.6695,-0.4938,2.9952,3.109
15.4210,-0.6695,-0.4938,2.9952,3.109
15.4370,-2.3212,-0.1852,1.7111,2.890
15.4370,-2.3212,-0.1852,1.7111,2.890
15.4380,-2.3212,-0.1852,1.7111,2.890
15.4380,-2.3212,-0.1852,1.7111,2.890
15.4540,-2.0175,0.0932,-0.3322,2.047
15.4540,-2.0175,0.0932,-0.3322,2.047
15.4710,-1.3844,0.2355,-4.1169,4.350
15.4710,-1.3844,0.2355,-4.1169,4.350
15.4710,-1.3844,0.2355,-4.1169,4.350
15.4710,-1.3844,0.2355,-4.1169,4.350
15.4870,-1.6228,0.7149,-5.4350,5.717
15.4870,-1.6228,0.7149,-5.4350,5.717
15.4870,-1.6228,0.7149,-5.4350,5.717
15.4880,-1.6228,0.7149,-5.4350,5.717
15.5050,-3.5181,0.8008,-5.4887,6.568
15.5060,-3.5181,0.8008,-5.4887,6.568
15.5210,-6.1049,0.2328,-0.8225,6.164
15.5210,-6.1049,0.2328,-0.8225,6.164
15.5210,-6.1049,0.2328,-0.8225,6.164
15.5210,-6.1049,0.2328,-0.8225,6.164
15.5370,-7.4144,-0.6961,4.5802,8.743
15.5380,-6.9364,-1.1411,5.4712,8.908
15.5540,1.2137,-3.8508,9.4259,10.254
15.5540,1.2137,-3.8508,9.4259,10.254
15.5540,1.2137,-3.8508,9.4259,10.254
15.5540,1.2137,-3.8508,9.4259,10.254
15.5710,5.3729,-5.8308,0.5137,7.946
15.5710,5.6619,-5.6361,-0.8108,8.030
15.5710,5.6619,-5.6361,-0.8108,8.030
15.5720,5.6619,-5.6361,-0.8108,8.030
15.5880,6.5277,-3.2583,-2.4608,7.700
15.5880,6.5277,-3.2583,-2.4608,7.700
15.6070,4.1012,-0.8370,-3.6516,5.555
15.6070,4.1012,-0.8370,-3.6516,5.555
15.6080,4.1012,-0.8370,-3.6516,5.555
15.6080,4.1012,-0.8370,-3.6516,5.555
15.6200,2.6914,0.0753,0.3293,2.712
15.6210,2.6914,0.0753,0.3293,2.712
15.6210,2.6914,0.0753,0.3293,2.712
15.6210,2.6914,0.0753,0.3293,2.712
15.6370,5.0885,0.2837,1.5565,5.329
15.6380,5.0885,0.2837,1.5565,5.329
15.6540,7.9326,-0.6050,-2.0016,8.204
15.6540,7.9326,-0.6050,-2.0016,8.204
15.6540,7.9326,-0.6050,-2.0016,8.204
15.6550,7.9326,-0.6050,-2.0016,8.204
15.6700,6.5178,-0.3946,-2.3618,6.944
15.6700,6.5178,-0.3946,-2.3618,6.944
15.6870,5.0241,0.7804,-2.0829,5.494
15.6870,5.0241,0.7804,-2.0829,5.494
15.6870,5.0241,0.7804,-2.0829,5.494
15.6880,5.0241,0.7804,-2.0829,5.494
15.7040,4.1884,1.2143,-1.1864,4.519
15.7040,4.1884,1.2143,-1.1864,4.519
15.7040,4.1884,1.2143,-1.1864,4.519
15.7040,4.1884,1.2143,-1.1864,4.519
15.7220,3.6207,1.4375,0.6186,3.944
15.7230,3.6207,1.4375,0.6186,3.944
15.7230,3.6207,1.4375,0.6186,3.944
15.7230,3.6207,1.4375,0.6186,3.944
15.7380,4.2603,0.4998,0.3401,4.303
15.7380,4.2603,0.4998,0.3401,4.303
15.7540,5.2540,0.6726,-0.8768,5.369
15.7540,5.2540,0.6726,-0.8768,5.369
15.7540,5.2540,0.6726,-0.8768,5.369
15.7550,5.2540,0.6726,-0.8768,5.369
15.7700,5.3354,1.7097,-1.4300,5.782
15.7710,5.3354,1.7097,-1.4300,5.782
15.7880,5.0165,2.7623,-1.5686,5.938
15.7880,4.7716,3.0101,-1.5751,5.857
15.7880,4.7716,3.0101,-1.5751,5.857
15.7890,4.7716,3.0101,-1.5751,5.857
15.8040,4.0333,3.3442,-1.4159,5.427
15.8120,3.3040,3.2449,-1.5005,4.868
15.8120,3.3040,3.2449,-1.5005,4.868
15.8120,3.3040,3.2449,-1.5005,4.868
15.8230,3.0867,3.1811,-1.4831,4.674
15.8230,3.0867,3.1811,-1.4831,4.674
15.8380,2.1562,2.7901,-1.1846,3.720
15.8380,2.1562,2.7901,-1.1846,3.720
15.8390,2.1562,2.7901,-1.1846,3.720
15.8540,0.9906,2.7538,-1.0867,3.122
15.8550,0.9906,2.7538,-1.0867,3.122
15.8550,0.9906,2.7538,-1.0867,3.122
15.8550,0.9906,2.7538,-1.0867,3.122
15.8710,1.1696,3.4317,-2.1195,4.200
15.8710,1.1696,3.4317,-2.1195,4.200
15.8710,1.1696,3.4317,-2.1195,4.200
15.8870,2.1025,3.5869,-3.1952,5.244
15.8880,2.1025,3.5869,-3.1952,5.244
15.8880,2.1025,3.5869,-3.1952,5.244
15.9070,1.2312,2.5463,-0.5936,2.890
15.9070,1.2312,2.5463,-0.5936,2.890
15.9070,1.2312,2.5463,-0.5936,2.890
15.9070,1.2312,2.5463,-0.5936,2.890
15.9260,-4.0467,-0.5665,8.2677,9.222
15.9260,-4.0467,-0.5665,8.2677,9.222
15.9270,-4.0467,-0.5665,8.2677,9.222
15.9380,-4.5407,-3.6758,-1.6578,6.073
15.9380,-4.5407,-3.6758,-1.6578,6.073
15.9380,-4.5407,-3.6758,-1.6578,6.073
15.9540,-5.2308,-13.2530,-3.9304,14.780
15.9550,-5.2308,-13.2530,-3.9304,14.780
15.9550,-5.2308,-13.2530,-3.9304,14.780
15.9720,-10.5447,-12.3833,-1.8327,16.368
15.9720,-10.5447,-12.3833,-1.8327,16.368
15.9720,-10.5447,-12.3833,-1.8327,16.368
15.9880,-7.3993,-3.7432,1.0285,8.356
15.9890,-7.3993,-3.7432,1.0285,8.356
15.9890,-7.3993,-3.7432,1.0285,8.356
16.0060,0.1843,3.0303,1.1712,3.254
16.0060,0.1843,3.0303,1.1712,3.254
16.0070,0.1843,3.0303,1.1712,3.254
16.0250,4.9195,4.0892,1.4009,6.549
16.0270,4.9195,4.0892,1.4009,6.549
16.0270,4.9195,4.0892,1.4009,6.549
16.0270,4.9195,4.0892,1.4009,6.549
16.0470,6.1500,2.8204,1.2201,6.875
16.0480,6.2300,2.2207,1.1530,6.714
16.0480,6.2300,2.2207,1.1530,6.714
16.0480,6.2300,2.2207,1.1530,6.714
16.0490,6.2300,2.2207,1.1530,6.714
16.0550,6.2234,1.3775,1.0664,6.463
16.0730,4.9569,-2.9788,0.0460,5.783
16.0730,4.9569,-2.9788,0.0460,5.783
16.0730,4.9569,-2.9788,0.0460,5.783
16.0890,2.8599,-5.4387,-1.5668,6.341
16.0890,2.8599,-5.4387,-1.5668,6.341
16.0890,2.8599,-5.4387,-1.5668,6.341
16.1060,0.0273,-6.4566,-2.6887,6.994
16.1060,0.0273,-6.4566,-2.6887,6.994
16.1060,0.0273,-6.4566,-2.6887,6.994
16.1280,-1.5428,-3.9998,-1.8425,4.666
16.1290,-1.5428,-3.9998,-1.8425,4.666
16.1290,-1.7652,-2.9041,-1.2889,3.635
16.1300,-1.7652,-2.9041,-1.2889,3.635
16.1300,-1.7652,-2.9041,-1.2889,3.635
16.1500,-2.3575,1.2748,0.7231,2.776
16.1500,-2.3575,1.2748,0.7231,2.776
16.1500,-2.3575,1.2748,0.7231,2.776
16.1500,-2.3575,1.2748,0.7231,2.776
16.1570,-2.4664,2.0226,0.9256,3.321
16.1780,-2.5252,3.5780,0.6106,4.422
16.1790,-2.5252,3.5780,0.6106,4.422
16.1790,-2.5252,3.5780,0.6106,4.422
16.1790,-2.5252,3.5780,0.6106,4.422
16.1790,-2.5252,3.5780,0.6106,4.422
16.1930,-1.9674,3.5782,0.3576,4.099
16.1930,-1.7662,3.2987,0.3402,3.757
16.2100,-1.2264,1.7564,0.6174,2.229
16.2100,-1.2264,1.7564,0.6174,2.229
16.2110,-0.9612,1.3591,0.8875,1.886
16.2110,-0.9612,1.3591,0.8875,1.886
16.2490,1.9226,0.8580,1.8069,2.774
16.2490,1.9226,0.8580,1.8069,2.774
16.2500,1.9226,0.8580,1.8069,2.774
16.2500,1.9226,0.8580,1.8069,2.774
16.2500,2.2956,0.9959,1.5583,2.948
16.2510,2.2956,0.9959,1.5583,2.948
16.2570,2.6223,1.1541,1.1707,3.095
16.2570,2.6223,1.1541,1.1707,3.095
16.2730,3.1488,1.7153,-0.3851,3.606
16.2730,3.1488,1.7153,-0.3851,3.606
16.2740,3.1322,1.9167,-0.9486,3.793
16.2740,3.1322,1.9167,-0.9486,3.793
16.2900,2.4002,2.2464,-1.9680,3.832
16.2900,2.4002,2.2464,-1.9680,3.832
16.3080,1.6847,2.2816,-2.2209,3.602
16.3090,1.3056,2.3245,-2.4480,3.620
16.3090,1.3056,2.3245,-2.4480,3.620
16.3090,1.3056,2.3245,-2.4480,3.620
16.3370,-0.0146,1.5456,-3.5744,3.894
16.3370,-0.4604,1.3436,-3.6096,3.879
16.3460,-0.9281,1.0532,-3.2719,3.560
16.3460,-0.9281,1.0532,-3.2719,3.560
16.3460,-1.4221,0.7125,-2.7142,3.146
16.3470,-1.4221,0.7125,-2.7142,3.146
16.3550,-1.9090,0.3979,-2.0397,2.822
16.3560,-2.3600,0.1785,-1.4594,2.781
16.3710,-3.2598,0.3364,0.3298,3.294
16.3710,-3.2598,0.3364,0.3298,3.294
16.3720,-3.2598,0.3364,0.3298,3.294
16.3720,-3.2598,0.3364,0.3298,3.294
16.3880,-3.6279,1.0495,-0.5026,3.810
16.3890,-3.6826,1.2853,-0.3982,3.921
16.3890,-3.6826,1.2853,-0.3982,3.921
16.3890,-3.6826,1.2853,-0.3982,3.921
16.4050,-4.0595,1.5172,1.4502,4.570
16.4050,-4.0595,1.5172,1.4502,4.570
16.4260,-4.3256,1.2353,2.2349,5.023
16.4260,-4.3256,1.2353,2.2349,5.023
16.4260,-4.3256,1.2353,2.2349,5.023
16.4270,-4.3256,1.2353,2.2349,5.023
16.4490,-4.2160,0.1191,0.9620,4.326
16.4500,-4.2160,0.1191,0.9620,4.326
16.4500,-4.2160,0.1191,0.9620,4.326
16.4500,-4.2160,0.1191,0.9620,4.326
16.4560,-4.1878,-0.0882,0.8317,4.270
16.4570,-4.1878,-0.0882,0.8317,4.270
16.4730,-3.7771,-0.3470,0.7186,3.860
16.4730,-3.7771,-0.3470,0.7186,3.860
16.4740,-3.5735,-0.2928,0.7533,3.664
16.4740,-3.5735,-0.2928,0.7533,3.664
16.4890,-3.2731,-0.7487,0.5178,3.397
16.4900,-3.2375,-1.0903,0.3139,3.431
16.5080,-3.0283,-2.3755,-0.4693,3.877
16.5090,-3.0283,-2.3755,-0.4693,3.877
16.5090,-3.0283,-2.3755,-0.4693,3.877
16.5090,-3.0283,-2.3755,-0.4693,3.877
16.5320,-2.5524,-5.2594,-0.9900,5.929
16.5330,-2.5524,-5.2594,-0.9900,5.929
16.5330,-2.4372,-5.9222,-1.0273,6.486
16.5330,-2.4372,-5.9222,-1.0273,6.486
16.5390,-2.4372,-5.9222,-1.0273,6.486
16.5400,-2.4372,-5.9222,-1.0273,6.486
16.5560,-0.8761,-8.1383,-0.5124,8.201
16.5560,-0.8761,-8.1383,-0.5124,8.201
16.5570,-0.8761,-8.1383,-0.5124,8.201
16.5570,-0.8761,-8.1383,-0.5124,8.201
16.5720,-1.4432,-6.4563,5.6800,8.719
16.5720,-1.4432,-6.4563,5.6800,8.719
16.5890,-3.8458,-3.0103,7.0145,8.547
16.5890,-3.8458,-3.0103,7.0145,8.547
16.5900,-3.8458,-3.0103,7.0145,8.547
16.5900,-3.8458,-3.0103,7.0145,8.547
16.6060,-4.1286,-1.1108,3.6666,5.632
16.6060,-4.1286,-1.1108,3.6666,5.632
16.6250,-4.2730,0.1323,0.6545,4.325
16.6300,-3.6201,0.1237,-0.5501,3.664
16.6310,-3.6201,0.1237,-0.5501,3.664
16.6310,-3.6201,0.1237,-0.5501,3.664
16.6500,-1.5831,-0.6346,-2.7136,3.205
16.6500,-1.5831,-0.6346,-2.7136,3.205
16.6500,-1.5831,-0.6346,-2.7136,3.205
16.6500,-1.5831,-0.6346,-2.7136,3.205
16.6550,-1.1787,-0.7200,-2.7261,3.056
16.6550,-1.1787,-0.7200,-2.7261,3.056
16.6720,-0.2553,-0.7336,-3.7590,3.838
16.6720,-0.2553,-0.7336,-3.7590,3.838
16.6720,-0.2553,-0.7336,-3.7590,3.838
16.6720,-0.2553,-0.7336,-3.7590,3.838
16.6890,-0.4016,-1.5248,-3.2569,3.619
16.6900,-0.4016,-1.5248,-3.2569,3.619
16.7090,-4.1694,-3.9241,8.4200,10.182
16.7100,-4.1694,-3.9241,8.4200,10.182
16.7100,-4.1694,-3.9241,8.4200,10.182
16.7100,-4.1694,-3.9241,8.4200,10.182
16.7330,4.3014,-5.7435,3.1602,7.841
16.7340,4.3014,-5.7435,3.1602,7.841
16.7340,4.3014,-5.7435,3.1602,7.841
16.7340,4.3014,-5.7435,3.1602,7.841
16.7380,6.0753,-5.0974,1.9501,8.167
16.7390,6.0753,-5.0974,1.9501,8.167
16.7560,7.1966,-2.8804,-0.8341,7.796
16.7560,7.1966,-2.8804,-0.8341,7.796
16.7560,7.1966,-2.8804,-0.8341,7.796
16.7730,4.9059,-1.0938,-3.5225,6.138
16.7730,4.9059,-1.0938,-3.5225,6.138
16.7730,4.9059,-1.0938,-3.5225,6.138
16.7890,3.2949,-0.2000,-2.2483,3.994
16.7900,2.2438,0.4195,0.0106,2.283
16.7900,2.2438,0.4195,0.0106,2.283
16.7910,2.2438,0.4195,0.0106,2.283
16.8060,3.8796,1.0580,-1.7685,4.393
16.8070,3.8796,1.0580,-1.7685,4.393
16.8250,5.6127,1.1556,-3.7341,6.840
16.8270,5.3636,1.1364,-3.4078,6.455
16.8280,5.3636,1.1364,-3.4078,6.455
16.8280,5.3636,1.1364,-3.4078,6.455
16.8460,4.2166,1.4545,-2.1353,4.945
16.8460,4.2166,1.4545,-2.1353,4.945
16.8460,3.8540,1.6604,-1.8331,4.579
16.8460,3.8540,1.6604,-1.8331,4.579
16.8560,3.5066,1.8971,-1.5491,4.277
16.8560,3.2484,2.1596,-1.2465,4.095
16.8730,3.2906,3.0487,-0.7216,4.544
16.8730,3.2906,3.0487,-0.7216,4.544
16.8730,3.2906,3.0487,-0.7216,4.544
16.8730,3.2906,3.0487,-0.7216,4.544
16.8890,4.0092,3.6410,-0.7978,5.474
16.8890,4.0092,3.6410,-0.7978,5.474
16.9100,5.8307,2.9443,-0.6499,6.564
16.9100,5.8307,2.9443,-0.6499,6.564
16.9110,5.8307,2.9443,-0.6499,6.564
16.9110,5.8307,2.9443,-0.6499,6.564
16.9270,6.6555,2.7405,-1.1497,7.289
16.9270,6.6555,2.7405,-1.1497,7.289
16.9270,6.6555,2.7405,-1.1497,7.289
16.9270,6.6555,2.7405,-1.1497,7.289
16.9400,6.1262,3.0880,-2.1698,7.195
16.9400,6.1262,3.0880,-2.1698,7.195
16.9560,5.8767,4.0554,-2.8685,7.695
16.9570,5.8767,4.0554,-2.8685,7.695
16.9730,4.5277,3.9476,-2.8619,6.654
16.9740,4.5277,3.9476,-2.8619,6.654
16.9740,4.5277,3.9476,-2.8619,6.654
16.9740,4.5277,3.9476,-2.8619,6.654
16.9890,4.0079,3.3482,-3.0582,6.052
16.9900,4.0079,3.3482,-3.0582,6.052
16.9900,4.0079,3.3482,-3.0582,6.052
16.9900,3.8619,3.1395,-3.1672,5.899
17.0070,2.8774,2.3773,-2.0801,4.273
17.0070,2.8774,2.3773,-2.0801,4.273
17.0270,-0.4910,0.8693,2.1816,2.399
17.0270,-0.4910,0.8693,2.1816,2.399
17.0270,-0.4910,0.8693,2.1816,2.399
17.0280,-0.4910,0.8693,2.1816,2.399
17.0430,-3.7046,-0.4334,0.8095,3.817
17.0430,-3.7046,-0.4334,0.8095,3.817
17.0430,-3.7046,-0.4334,0.8095,3.817
17.0550,-0.0157,-0.0279,-2.6002,2.600
17.0560,-0.0157,-0.0279,-2.6002,2.600
17.0720,0.3163,-5.2831,0.1412,5.294
17.0720,0.3163,-5.2831,0.1412,5.294
17.0730,0.3163,-5.2831,0.1412,5.294
17.0890,-5.0147,-9.7761,1.8975,11.150
17.0900,-5.0147,-9.7761,1.8975,11.150
17.0900,-5.0147,-9.7761,1.8975,11.150
17.0910,-5.0147,-9.7761,1.8975,11.150
17.1070,-7.3320,-10.4126,-0.5584,12.747
17.1070,-7.3320,-10.4126,-0.5584,12.747
17.1070,-7.3320,-10.4126,-0.5584,12.747
17.1260,-5.6383,-5.1970,-0.4075,7.679
