time,ax,ay,az,aT
0.0090,-0.0128,0.9156,0.7524,1.185
0.0170,0.1209,0.2533,1.2895,1.320
0.0170,0.1209,0.2533,1.2895,1.320
0.0340,0.8333,-0.4112,3.1466,3.281
0.0350,0.8333,-0.4112,3.1466,3.281
0.0430,1.0481,-0.5604,3.3854,3.588
0.0590,1.4304,-1.1524,3.6033,4.044
0.0760,1.8407,-1.0852,2.3582,3.182
0.0770,1.8407,-1.0852,2.3582,3.182
0.0930,2.0342,-0.9844,1.2672,2.591
0.1090,2.2782,-0.8673,0.5642,2.502
0.1100,2.2782,-0.8673,0.5642,2.502
0.1270,2.4639,-1.0630,-0.5132,2.732
0.1270,2.4639,-1.0630,-0.5132,2.732
0.1430,2.4794,-1.1231,-1.1352,2.949
0.1590,2.5030,-0.9577,-1.6972,3.172
0.1590,2.5030,-0.9577,-1.6972,3.172
0.1750,2.2027,-1.1217,-1.8419,3.083
0.1920,2.2286,-0.8223,-1.8098,2.986
0.1930,2.1568,-0.8381,-1.7794,2.919
0.2080,2.1362,-1.2979,-1.6788,3.011
0.2080,2.1362,-1.2979,-1.6788,3.011
0.2270,2.0635,-1.5618,-2.0990,3.332
0.2270,2.0635,-1.5618,-2.0990,3.332
0.2420,2.4772,-1.9160,-2.5268,4.024
0.2600,0.5735,-1.8252,-4.1631,4.582
0.2600,0.5735,-1.8252,-4.1631,4.582
0.2760,1.3313,-1.1758,-5.6340,5.907
0.2920,0.9931,-1.6444,-0.5210,1.990
0.2930,0.9848,-1.7420,-0.0246,2.001
0.3090,0.9312,-1.7277,-0.2213,1.975
0.3090,0.9312,-1.7277,-0.2213,1.975
0.3270,0.6495,-0.9458,-0.1415,1.156
0.3420,0.1054,-0.9155,-0.6768,1.143
0.3420,0.1054,-0.9155,-0.6768,1.143
0.3590,-0.4237,-1.1445,-3.7666,3.959
0.3600,-0.4237,-1.1445,-3.7666,3.959
0.3760,-0.9718,-1.0058,-4.1431,4.373
0.3930,-0.7155,-0.4773,-4.5276,4.609
0.3940,-0.7155,-0.4773,-4.5276,4.609
0.4090,0.0471,0.3335,-2.4092,2.433
0.4290,1.3808,0.8837,-0.3959,1.686
0.4290,1.3808,0.8837,-0.3959,1.686
0.4420,1.8255,1.0881,0.5198,2.188
0.4430,2.0152,1.1788,0.6244,2.417
0.4590,2.4598,1.5003,0.3155,2.898
0.4760,2.6785,1.7577,-1.0994,3.387
0.4770,2.6785,1.7577,-1.0994,3.387
0.4930,2.7194,1.0784,-1.4151,3.250
0.4930,2.7194,1.0784,-1.4151,3.250
0.5100,3.6992,-0.6400,-3.0063,4.810
0.5280,1.8813,-2.2394,-9.5929,10.029
0.5290,1.8813,-2.2394,-9.5929,10.029
0.5440,1.8850,-3.7738,-6.4055,7.670
0.5600,5.0207,-3.6721,-3.4586,7.117
0.5600,5.0207,-3.6721,-3.4586,7.117
0.5770,7.1546,-2.3882,-1.9364,7.787
0.5930,8.6749,-1.8355,-2.6146,9.244
0.5930,8.6749,-1.8355,-2.6146,9.244
0.6100,7.0761,-3.3805,-2.9891,8.392
0.6100,7.0761,-3.3805,-2.9891,8.392
0.6290,2.6357,-6.0379,-4.5295,7.995
0.6440,0.5559,-7.6272,-4.4549,8.850
0.6450,-0.0461,-8.0801,-4.0132,9.022
0.6610,-1.6300,-10.1151,-3.4716,10.818
0.6770,-2.3421,-12.8100,-3.2430,13.420
0.6780,-2.3612,-13.2862,-1.8001,13.614
0.6940,-2.0575,-12.3862,2.7870,12.861
0.6950,-2.0575,-12.3862,2.7870,12.861
0.7110,-1.7296,-11.7361,8.4864,14.586
0.7310,0.2909,-11.2698,13.2019,17.360
0.7320,1.3000,-10.6117,13.9915,17.609
0.7450,3.5713,-9.4679,14.8428,17.964
0.7610,8.2234,-6.5215,14.6671,18.035
0.7620,8.2234,-6.5215,14.6671,18.035
0.7780,12.7686,-4.2844,12.4207,18.321
0.7950,16.3523,-0.7053,9.4488,18.899
0.7960,16.3523,-0.7053,9.4488,18.899
0.8120,16.7724,1.7177,7.2387,18.348
0.8120,16.7724,1.7177,7.2387,18.348
0.8320,17.7338,4.4164,2.9999,18.520
0.8450,17.7889,5.5929,0.9232,18.670
0.8460,17.7889,5.5929,0.9232,18.670
0.8620,13.0568,7.1951,-0.2789,14.911
0.8780,10.7257,7.3923,-1.2816,13.089
0.8790,10.7257,7.3923,-1.2816,13.089
0.8960,8.4101,7.2547,-2.2942,11.341
0.9110,5.3669,7.3546,-3.6217,9.798
0.9110,5.3669,7.3546,-3.6217,9.798
0.9280,3.2026,7.5555,-4.3589,9.292
0.9480,0.6387,5.5716,-3.5858,6.657
0.9490,0.6387,5.5716,-3.5858,6.657
0.9620,-0.0109,4.7223,-3.1346,5.668
0.9630,-0.4488,4.4526,-2.8743,5.319
0.9790,-1.7580,4.2383,-1.8256,4.938
0.9940,-1.8907,4.2934,-0.6223,4.732
0.9950,-1.8907,4.2934,-0.6223,4.732
1.0120,-1.9321,4.6470,-2.0948,5.451
1.0320,-2.3830,5.0166,-1.9616,5.890
1.0330,-2.3830,5.0166,-1.9616,5.890
1.0500,-1.6945,3.6574,-0.9428,4.140
1.0500,-1.6747,3.0268,-0.6973,3.529
1.0610,-2.4381,1.2156,-1.3703,3.050
1.0770,-2.6148,-0.6063,0.3254,2.704
1.0770,-2.6148,-0.6063,0.3254,2.704
1.0940,-2.4438,-0.6907,-0.2217,2.549
1.1110,-2.8971,-1.3708,-0.4336,3.234
1.1110,-2.2926,-1.3115,-0.5072,2.689
1.1290,0.7648,-0.8072,0.3887,1.178
1.1290,0.7648,-0.8072,0.3887,1.178
1.1470,2.0250,-0.2171,1.2428,2.386
1.1610,0.6875,-0.0235,1.0583,1.262
1.1620,0.6875,-0.0235,1.0583,1.262
1.1780,-0.9658,-1.7066,0.2514,1.977
1.1950,-3.1038,-4.0892,2.5540,5.734
1.1960,-3.1038,-4.0892,2.5540,5.734
1.2130,-2.5230,-4.7028,3.0900,6.167
1.2320,-1.3728,-3.1520,5.7288,6.681
1.2320,-1.3728,-3.1520,5.7288,6.681
1.2500,0.7250,-1.2603,5.6129,5.798
1.2510,2.2235,-0.9356,2.9324,3.797
1.2630,3.8637,-0.8236,0.3686,3.968
1.2800,6.0393,0.0462,-5.8527,8.410
1.2960,9.4778,-2.2399,-15.4294,18.246
1.2960,9.4778,-2.2399,-15.4294,18.246
1.3130,6.1354,-6.0891,-4.8609,9.917
1.3350,1.3358,-8.8562,3.4822,9.609
1.3350,0.1807,-8.9749,3.6313,9.683
1.3470,-2.1819,-8.8274,2.7869,9.511
1.3470,-3.2968,-8.7285,2.2311,9.593
1.3630,-4.1471,-7.4542,1.3709,8.640
1.3790,-0.0963,-2.3382,-0.4708,2.387
1.3790,-0.0963,-2.3382,-0.4708,2.387
1.3970,0.8091,-1.2025,-2.8013,3.154
1.4140,0.0969,-0.8442,-0.9564,1.279
1.4150,0.0969,-0.8442,-0.9564,1.279
1.4340,0.7266,-0.9306,2.1890,2.487
1.4350,0.7266,-0.9306,2.1890,2.487
1.4500,0.7713,-0.1097,2.8036,2.910
1.4630,0.4576,0.2530,3.0441,3.089
1.4800,-1.0307,0.5259,2.5871,2.834
1.4810,-1.0307,0.5259,2.5871,2.834
1.4970,-2.5143,1.3721,1.9181,3.447
1.4970,-2.5143,1.3721,1.9181,3.447
1.5130,-4.1469,1.9264,0.6517,4.619
1.5320,-5.0085,1.8419,0.0575,5.337
1.5320,-5.0085,1.8419,0.0575,5.337
1.5470,-4.6367,1.9052,0.3823,5.027
1.5620,-5.2048,2.8339,0.7543,5.974
1.5630,-5.2048,2.8339,0.7543,5.974
1.5790,-6.0252,2.5973,0.7976,6.609
1.5800,-6.0252,2.5973,0.7976,6.609
1.5960,-5.8588,2.0582,1.3172,6.348
1.6130,-5.1073,1.9899,0.9341,5.560
1.6140,-5.1073,1.9899,0.9341,5.560
1.6300,-4.0616,2.3196,0.0518,4.678
1.6310,-3.8226,2.9581,-0.6271,4.874
1.6520,-2.6435,3.0939,0.4608,4.095
1.6520,-2.6435,3.0939,0.4608,4.095
1.6710,1.7815,0.5771,0.9105,2.082
1.6710,1.7815,0.5771,0.9105,2.082
1.6820,2.9435,-0.0735,0.2563,2.956
1.6960,8.1489,-2.8161,-2.7487,9.049
1.7130,8.7775,-3.8816,-2.9070,10.028
1.7130,9.4092,-3.6404,-2.0568,10.296
1.7320,8.3345,-2.0781,-3.8002,9.393
1.7470,3.0050,0.2872,-4.4238,5.356
1.7480,2.1642,1.6007,-2.6293,3.763
1.7630,-0.1526,2.2010,-0.8515,2.365
1.7800,-2.6549,2.7026,-0.6321,3.841
1.7810,-2.6549,2.7026,-0.6321,3.841
1.7970,-0.9269,-4.0346,2.5848,4.880
1.7980,-0.9269,-4.0346,2.5848,4.880
1.8160,1.5983,-4.0269,8.5799,9.612
1.8300,1.1453,-3.8058,4.8670,6.284
1.8300,1.1453,-3.8058,4.8670,6.284
1.8510,-0.7688,-4.8215,-6.5059,8.134
1.8510,-0.7688,-4.8215,-6.5059,8.134
1.8730,-6.8947,-1.5217,-0.2448,7.065
1.8740,-6.8947,-1.5217,-0.2448,7.065
1.8820,-7.8506,-2.2142,-1.4491,8.285
1.8970,-3.2502,-5.5299,-1.9508,6.704
1.9130,-4.4283,-3.8825,3.1749,6.691
1.9140,-4.4283,-3.8825,3.1749,6.691
1.9300,-5.2252,0.6036,-1.5692,5.489
1.9500,-2.7865,7.1161,5.4592,9.392
1.9590,-4.1292,4.9250,4.5324,7.864
1.9640,-5.0931,3.4315,5.0896,7.976
1.9800,-0.6478,1.1734,6.9594,7.087
1.9810,-0.6478,1.1734,6.9594,7.087
1.9980,1.8926,0.4601,2.9447,3.531
1.9980,1.8926,0.4601,2.9447,3.531
2.0150,-0.3054,-0.6379,4.0067,4.069
2.0330,-2.1489,-2.8329,5.9165,6.903
2.0330,-2.1489,-2.8329,5.9165,6.903
2.0500,2.2950,-5.5313,1.7885,6.250
2.0640,3.3191,-4.4815,1.8924,5.889
2.0640,3.3191,-4.4815,1.8924,5.889
2.0890,3.6629,2.0600,-6.7940,7.989
2.0900,3.6629,2.0600,-6.7940,7.989
2.1040,2.9999,4.1842,-6.6664,8.423
2.1120,2.9974,3.6488,-4.2133,6.328
2.1290,1.2999,-3.2093,5.1013,6.165
2.1290,1.2999,-3.2093,5.1013,6.165
2.1450,-0.4568,-4.3900,4.9515,6.633
2.1620,6.6432,0.4052,7.1802,9.790
2.1620,6.6432,0.4052,7.1802,9.790
2.1800,8.2600,-1.6028,2.8462,8.882
2.1800,8.2600,-1.6028,2.8462,8.882
2.1980,7.1349,-4.3347,7.3428,11.118
2.2140,4.2699,-5.4613,5.5796,8.899
2.2150,4.2699,-5.4613,5.5796,8.899
2.2320,4.4771,0.1765,-5.2293,6.886
2.2600,1.5568,11.0548,-19.6673,22.615
2.2610,-0.4053,8.9860,-19.3363,21.326
2.2610,-0.4053,8.9860,-19.3363,21.326
2.2700,-2.7067,5.6302,-16.3545,17.507
2.2800,-1.3646,4.5689,-12.3471,13.236
2.2970,1.7899,3.9692,-3.7498,5.746
2.3130,21.1872,5.8528,4.0905,22.358
2.3140,22.3169,3.7341,2.6742,22.785
2.3320,-18.4553,-20.4939,-6.8548,28.418
2.3330,-18.4553,-20.4939,-6.8548,28.418
2.3480,-3.8046,-7.0319,-0.7969,8.035
2.3620,1.0359,-4.7306,2.9085,5.649
2.3790,1.3954,-2.3641,6.9154,7.440
2.3790,1.3954,-2.3641,6.9154,7.440
2.3960,5.2758,1.2878,11.8928,13.074
2.3960,5.2758,1.2878,11.8928,13.074
2.4140,1.8709,-3.8652,7.2198,8.400
2.4290,1.9139,-1.2283,3.5518,4.217
2.4290,1.9139,-1.2283,3.5518,4.217
2.4460,-2.0265,-0.5582,-3.4109,4.007
2.4470,-2.0265,-0.5582,-3.4109,4.007
2.4620,-2.9475,-0.0767,-2.3714,3.784
2.4790,-3.5108,-2.3090,-1.2293,4.378
2.4790,-3.5108,-2.3090,-1.2293,4.378
2.4960,-5.4347,-5.6119,3.4117,8.525
2.5130,3.6272,-1.9978,-1.8267,4.526
2.5130,3.6272,-1.9978,-1.8267,4.526
2.5300,3.2914,-1.2076,-1.0694,3.665
2.5480,-1.9435,-1.3377,-2.2650,3.271
2.5480,-1.9435,-1.3377,-2.2650,3.271
2.5630,-0.8543,0.3127,-1.8389,2.052
2.5630,-0.8543,0.3127,-1.8389,2.052
2.5800,1.2356,-1.3185,0.2143,1.820
2.5970,-4.1649,-3.8341,-5.8613,8.149
2.5970,-4.1649,-3.8341,-5.8613,8.149
2.6140,-8.9638,-4.4183,-3.9902,10.761
2.6150,-8.9638,-4.4183,-3.9902,10.761
2.6300,-6.4509,-0.5824,9.1244,11.190
2.6490,-1.1212,2.8222,1.8712,3.567
2.6550,-1.4314,3.0402,3.1208,4.586
2.6670,1.2355,4.5173,1.9695,5.081
2.6670,1.2355,4.5173,1.9695,5.081
2.6800,5.2961,6.7971,0.0439,8.617
2.6970,5.2645,7.1052,-0.4155,8.853
2.7130,0.1438,3.8240,-3.8412,5.422
2.7140,-4.0547,1.8099,-2.0109,4.874
2.7300,-6.4628,-0.1318,-1.0415,6.547
2.7490,-1.3619,3.6552,5.0913,6.414
2.7490,-1.3619,3.6552,5.0913,6.414
2.7640,-1.5082,3.1700,4.8092,5.954
2.7650,-1.5082,3.1700,4.8092,5.954
2.7820,-1.6550,3.2717,3.6778,5.193
2.7980,0.2709,-0.1406,2.4528,2.472
2.7980,0.2709,-0.1406,2.4528,2.472
2.8160,3.8199,2.2664,1.1377,4.585
2.8170,3.8199,2.2664,1.1377,4.585
2.8320,8.0696,5.1239,0.2347,9.562
2.8490,4.2640,3.4350,-1.3958,5.651
2.8490,4.2640,3.4350,-1.3958,5.651
2.8680,1.5954,-0.5384,-1.7238,2.410
2.8690,1.5954,-0.5384,-1.7238,2.410
2.8820,-2.0061,-2.5027,-0.2968,3.221
2.8980,-0.8116,-1.6733,-0.7188,1.994
2.9130,4.1084,-2.9191,-1.9565,5.406
2.9140,4.1084,-2.9191,-1.9565,5.406
2.9300,7.0449,-2.9760,-1.9677,7.897
2.9480,7.9765,-3.6228,-1.6281,8.911
2.9490,7.6345,-3.7846,-2.0137,8.756
2.9640,6.7332,-3.8610,-2.5600,8.173
2.9650,6.3327,-3.6869,-2.9660,7.905
2.9800,4.1993,-2.7347,-1.5697,5.251
2.9970,0.1256,-3.4697,0.7721,3.557
2.9970,-1.0376,-3.8518,1.6630,4.322
3.0140,-5.8239,-5.0201,6.8707,10.311
3.0300,-8.3216,-5.6284,6.8685,12.170
3.0310,-8.6521,-5.1991,5.3057,11.404
3.0540,-8.6084,-4.8107,-2.2432,10.113
3.0560,-8.6084,-4.8107,-2.2432,10.113
3.0740,-4.3136,-3.6589,-3.8870,6.863
3.0750,-2.8872,-3.1559,-4.5801,6.267
3.0810,-1.6718,-1.7806,-4.4967,5.117
3.0970,-1.4049,-0.4377,0.6699,1.617
3.1140,-5.1151,-1.8034,-0.9793,5.511
3.1150,-5.7193,-1.5861,-0.9888,6.017
3.1310,-6.6074,0.1861,-1.4821,6.774
3.1500,-3.7424,-0.5311,2.4161,4.486
3.1510,-3.7424,-0.5311,2.4161,4.486
3.1700,2.8897,-0.0033,3.3136,4.397
3.1700,2.8897,-0.0033,3.3136,4.397
3.1800,5.9892,-1.7285,4.6340,7.767
3.1990,4.3514,0.0021,-0.1434,4.354
3.1990,4.0045,2.1188,-3.1511,5.519
3.2150,-0.9007,2.0331,-0.5399,2.288
3.2310,0.3748,0.0860,2.0604,2.096
3.2310,0.3748,0.0860,2.0604,2.096
3.2500,3.2342,-0.7740,2.2025,3.989
3.2510,3.2342,-0.7740,2.2025,3.989
3.2650,0.3902,-1.1914,0.4045,1.317
3.2810,-5.8850,0.8161,-6.7559,8.997
3.2810,-5.8850,0.8161,-6.7559,8.997
3.2970,-5.8188,-1.8672,-8.2189,10.242
3.3140,-1.3414,0.8247,-9.4135,9.544
3.3140,-1.3414,0.8247,-9.4135,9.544
3.3300,-6.0232,-0.1039,-12.6666,14.026
3.3480,-5.9126,0.3858,-7.3249,9.421
3.3540,-9.9819,-3.0547,-0.8998,10.478
3.3640,-6.1308,-3.1930,4.3116,8.147
3.3810,-8.1433,-6.4901,5.5272,11.789
3.3820,-8.1433,-6.4901,5.5272,11.789
3.3980,-9.9001,1.4380,12.6049,16.092
3.3990,-9.9001,1.4380,12.6049,16.092
3.4160,20.1076,12.6040,4.2008,24.100
3.4320,-3.3105,-3.3915,-4.8218,6.761
3.4320,-3.3105,-3.3915,-4.8218,6.761
3.4500,-1.6368,-1.8072,-7.7281,8.104
3.4640,-1.6368,-1.8072,-7.7281,8.104
3.4640,-1.6368,-1.8072,-7.7281,8.104
3.4830,1.7865,0.0308,-5.9980,6.258
3.4840,2.5957,0.2772,-4.9666,5.611
3.4990,5.9488,0.5401,1.1479,6.083
3.5140,6.7774,-1.3592,6.4642,9.464
3.5320,4.7351,-1.9271,8.4330,9.862
3.5320,3.5855,-2.5125,7.5676,8.743
3.5570,-0.7788,-1.5107,4.7763,5.070
3.5590,-0.9822,-0.8978,4.1583,4.366
3.5670,-0.6314,0.7338,3.3218,3.460
3.5800,0.6593,2.6305,4.0361,4.863
3.5980,-0.0411,1.3463,4.8270,5.011
3.5980,-0.0411,1.3463,4.8270,5.011
3.6130,1.7217,-1.0826,4.8381,5.248
3.6140,1.7217,-1.0826,4.8381,5.248
3.6300,1.4868,-2.6510,4.6494,5.555
3.6480,0.1350,-0.1274,6.5535,6.556
3.6480,0.1350,-0.1274,6.5535,6.556
3.6650,0.5122,1.2467,7.8972,8.011
3.6660,0.5122,1.2467,7.8972,8.011
3.6800,0.0843,0.2785,6.9107,6.917
3.6960,-1.4236,-2.2136,3.3992,4.299
3.6970,-1.4236,-2.2136,3.3992,4.299
3.7140,-1.1432,-1.7888,-0.8025,2.270
3.7320,-0.0756,-1.1362,-4.4279,4.572
3.7320,-0.0756,-1.1362,-4.4279,4.572
3.7510,-0.6610,-4.4430,-4.3843,6.277
3.7520,-0.6610,-4.4430,-4.3843,6.277
3.7680,-0.5254,-4.7957,-3.3639,5.881
3.7690,-0.5254,-4.7957,-3.3639,5.881
3.7820,-0.8966,-3.6049,-2.5588,4.511
3.7970,-2.6600,-1.5543,-2.2901,3.839
3.8150,-1.9937,-0.3192,-3.4236,3.975
3.8150,-1.9937,-0.3192,-3.4236,3.975
3.8350,-1.1877,0.4709,-3.3884,3.621
3.8350,-1.1877,0.4709,-3.3884,3.621
3.8500,1.5482,1.4110,-3.2717,3.885
3.8700,0.7390,-0.7201,5.0497,5.154
3.8700,0.7390,-0.7201,5.0497,5.154
3.8810,-1.0082,-0.3778,1.8946,2.179
3.8970,2.0765,-0.7168,-2.6121,3.413
3.8980,2.0765,-0.7168,-2.6121,3.413
3.9140,1.3935,0.6127,-5.0745,5.298
3.9300,1.5850,3.0261,-3.4083,4.826
3.9310,1.4294,3.6353,-3.6104,5.319
3.9470,3.0086,4.1921,-3.6142,6.300
3.9470,3.0086,4.1921,-3.6142,6.300
3.9670,2.1092,3.0752,-3.8851,5.385
3.9670,2.1092,3.0752,-3.8851,5.385
3.9810,3.0049,3.6972,-4.7512,6.728
3.9970,2.2065,2.6737,-4.4543,5.644
3.9980,1.4886,2.2973,-3.9152,4.777
4.0140,-0.1055,1.1902,-3.3591,3.565
4.0310,-1.6753,1.6315,-2.3367,3.306
4.0310,-1.6753,1.6315,-2.3367,3.306
4.0490,-1.6753,1.6315,-2.3367,3.306
4.0490,-1.6753,1.6315,-2.3367,3.306
4.0640,-1.6753,1.6315,-2.3367,3.306
4.0810,-2.1850,-0.2229,2.9436,3.673
4.0810,-2.1850,-0.2229,2.9436,3.673
4.0980,-3.1928,-1.8566,2.8001,4.635
4.1140,-3.9026,-3.5426,5.5779,7.674
4.1140,-3.9026,-3.5426,5.5779,7.674
4.1310,-4.6329,-5.4132,6.5895,9.705
4.1510,-3.3696,-5.0565,7.2506,9.460
4.1510,-3.3696,-5.0565,7.2506,9.460
4.1660,-4.4081,-6.0731,5.9467,9.575
4.1670,-5.2614,-7.0330,5.4836,10.354
4.1810,-5.7437,-9.1483,2.2050,11.025
4.1980,-5.3141,-8.6135,-4.1193,10.927
4.1980,-5.3141,-8.6135,-4.1193,10.927
4.2160,1.9212,0.0380,-4.3616,4.766
4.2320,5.8720,2.5683,-5.8186,8.656
4.2320,5.8720,2.5683,-5.8186,8.656
4.2490,10.6671,5.4168,-2.8475,12.298
4.2500,10.6671,5.4168,-2.8475,12.298
4.2640,13.2200,6.9901,-0.3093,14.957
4.2810,11.4957,7.1626,1.2714,13.604
4.2810,11.4957,7.1626,1.2714,13.604
4.2990,3.0137,2.3669,-4.9238,6.239
4.3300,-6.7768,-3.8429,-5.7342,9.673
4.3310,-7.2302,-3.8152,-5.0704,9.620
4.3320,-7.2302,-3.8152,-5.0704,9.620
4.3350,-7.2718,-3.5017,-4.3203,9.155
4.3510,-6.1435,-2.2318,-2.0938,6.864
4.3650,-5.6261,-1.9799,-0.4779,5.983
4.3810,-3.8404,-0.5803,0.6792,3.943
4.3810,-3.8404,-0.5803,0.6792,3.943
4.3980,-1.0440,1.6510,0.3357,1.982
4.3990,-1.0440,1.6510,0.3357,1.982
4.4150,-0.0503,2.3453,-1.0340,2.564
4.4320,-0.7454,2.2569,-2.7729,3.652
4.4330,-0.7454,2.2569,-2.7729,3.652
4.4490,-1.8845,2.0225,-3.0137,4.090
4.4660,-1.5465,2.7108,-1.8103,3.608
4.4660,-1.5465,2.7108,-1.8103,3.608
4.4820,-1.6869,2.5285,-0.6509,3.108
4.4980,-2.4417,1.3108,0.0397,2.772
4.4990,-2.4417,1.3108,0.0397,2.772
4.5150,-1.3054,1.3560,-0.5162,1.952
4.5150,-1.3054,1.3560,-0.5162,1.952
4.5320,1.1394,3.2170,-1.4981,3.727
4.5490,0.1142,4.9097,-2.3201,5.432
4.5490,0.1142,4.9097,-2.3201,5.432
4.5650,-0.0857,3.8611,-1.4658,4.131
4.5650,-0.0857,3.8611,-1.4658,4.131
4.5820,1.9495,0.9645,0.4271,2.217
4.5980,1.1904,-1.4598,-0.6624,1.997
4.5990,1.1904,-1.4598,-0.6624,1.997
4.6160,0.8665,-4.0976,0.9070,4.285
4.6320,-0.1435,-4.1786,3.8706,5.698
4.6330,-0.6799,-3.0841,4.3387,5.366
4.6490,-1.8769,0.7392,4.2180,4.676
4.6500,-1.8769,0.7392,4.2180,4.676
4.6680,-1.3544,0.6829,3.8169,4.107
4.6940,-2.0085,-1.6864,0.9858,2.802
4.6950,-2.0085,-1.6864,0.9858,2.802
4.6950,-2.0085,-1.6864,0.9858,2.802
4.7030,-2.3388,-2.2551,-0.9740,3.392
4.7160,0.0588,-1.6980,-1.7326,2.427
4.7330,1.1051,-1.5817,1.6987,2.571
4.7520,-0.7302,-3.2143,3.7079,4.961
4.7520,-0.7302,-3.2143,3.7079,4.961
4.7690,-1.7435,-5.8204,1.1867,6.191
4.7690,-1.7860,-6.8108,-0.3458,7.050
4.7840,-1.7104,-8.5510,-3.9931,9.591
4.7990,-2.3456,-7.3165,-4.5788,8.944
4.7990,-2.3456,-7.3165,-4.5788,8.944
4.8170,1.5657,-4.4447,-1.2884,4.885
4.8330,5.3559,-3.3025,0.7669,6.339
4.8340,5.3559,-3.3025,0.7669,6.339
4.8500,6.3544,-2.7589,1.6598,7.124
4.8680,6.0083,-2.4599,1.6314,6.694
4.8690,5.8135,-2.3320,1.7110,6.493
4.8840,4.9086,-1.5288,0.9321,5.225
4.8850,4.9086,-1.5288,0.9321,5.225
4.9020,3.4809,-0.4540,-0.7976,3.600
4.9160,2.6360,0.4782,-2.9735,4.002
4.9170,2.6360,0.4782,-2.9735,4.002
4.9370,1.6052,-0.1867,-3.5716,3.920
4.9380,1.6052,-0.1867,-3.5716,3.920
4.9580,0.1743,0.3580,-3.3229,3.347
4.9580,0.1743,0.3580,-3.3229,3.347
4.9670,0.2339,0.9584,-3.8138,3.939
4.9830,-0.4323,1.8748,-3.7579,4.222
5.0000,-0.9656,2.8847,-3.3641,4.536
5.0000,-1.0740,3.3415,-3.2701,4.797
5.0160,-0.5726,5.0611,-2.7564,5.791
5.0330,-0.0455,7.4105,-2.7420,7.902
5.0340,-0.0455,7.4105,-2.7420,7.902
5.0500,0.3937,8.1377,-2.4559,8.509
5.0510,0.3937,8.1377,-2.4559,8.509
5.0690,0.3873,7.3990,-1.9708,7.667
5.0890,1.3812,6.9826,-3.6499,7.999
5.0900,1.3812,6.9826,-3.6499,7.999
5.1010,1.9637,6.6901,-4.3921,8.240
5.1020,1.9637,6.6901,-4.3921,8.240
5.1180,2.6326,6.0580,-2.8820,7.207
5.1350,1.9729,5.4740,-1.7759,6.084
5.1510,0.4526,3.6699,0.3508,3.714
5.1520,0.4526,3.6699,0.3508,3.714
5.1720,-4.8203,0.6620,5.6700,7.471
5.1730,-4.8203,0.6620,5.6700,7.471
5.1940,-8.7601,-5.8639,3.1009,10.988
5.1940,-8.7601,-5.8639,3.1009,10.988
5.2000,-8.1969,-6.5804,2.3428,10.769
5.2170,-2.7968,-11.6593,3.8318,12.587
5.2340,1.7693,-13.1673,6.7293,14.893
5.2350,1.7852,-12.5960,6.0335,14.080
5.2510,0.9777,-5.8702,1.8238,6.224
5.2700,2.0560,-1.3696,0.3177,2.491
5.2880,2.8166,-1.2819,-4.6685,5.601
5.2940,4.0073,-0.6109,-4.2884,5.901
5.2940,4.0073,-0.6109,-4.2884,5.901
5.3000,5.0588,0.0920,-3.7603,6.304
5.3160,8.4797,1.3595,1.3155,8.688
5.3170,8.4797,1.3595,1.3155,8.688
5.3340,6.5394,0.5648,3.4919,7.435
5.3530,4.9379,0.9021,-0.1277,5.021
5.3540,4.9379,0.9021,-0.1277,5.021
5.3670,5.2184,2.7188,-3.0968,6.649
5.3840,2.6040,4.6077,-5.1132,7.359
5.3850,1.7918,4.9851,-5.7878,7.846
5.4010,2.2363,4.9052,-7.3867,9.145
5.4010,2.2363,4.9052,-7.3867,9.145
5.4180,2.4567,3.2603,-7.5670,8.598
5.4340,1.4174,0.4338,-4.7659,4.991
5.4350,1.4174,0.4338,-4.7659,4.991
5.4510,0.8496,-0.8073,0.8002,1.419
5.4700,0.0875,2.3582,2.7762,3.644
5.4700,-0.1227,1.8938,1.9362,2.711
5.4870,-1.4948,-1.3028,-2.1576,2.930
5.4880,-1.4948,-1.3028,-2.1576,2.930
5.5010,-0.4604,1.0279,-2.4449,2.692
5.5170,0.4750,2.5328,-4.0455,4.797
5.5180,0.4569,2.6912,-4.5475,5.304
5.5360,-0.3078,4.0815,-4.3122,5.945
5.5540,0.1009,4.7238,-4.4423,6.485
5.5540,0.1009,4.7238,-4.4423,6.485
5.5710,1.1976,3.5097,-4.4729,5.810
5.5720,0.9778,2.3357,-4.1735,4.882
5.5840,0.7018,1.8338,-3.4091,3.934
5.6010,-0.2906,-2.1049,1.8963,2.848
5.6170,-0.2313,-2.8394,5.6002,6.283
5.6180,-0.2313,-2.8394,5.6002,6.283
5.6350,0.8615,-2.4445,1.9170,3.224
5.6510,0.0980,-0.9952,0.4956,1.116
5.6520,0.0980,-0.9952,0.4956,1.116
5.6710,-2.9505,0.4527,0.2366,2.994
5.6720,-3.7419,0.7768,-0.0165,3.822
5.6950,-3.8741,2.1613,-0.6298,4.481
5.6950,-3.8741,2.1613,-0.6298,4.481
5.7010,-3.8969,2.0092,-0.3359,4.397
5.7180,-3.8584,1.2645,1.7884,4.437
5.7340,-5.0872,0.4364,2.9640,5.904
5.7350,-5.0872,0.4364,2.9640,5.904
5.7520,-6.0845,-2.6556,2.8725,7.234
5.7740,-3.7133,-5.8289,2.5549,7.368
5.7750,-3.0010,-6.3202,2.4110,7.400
5.7940,-2.1510,-6.5925,2.1274,7.253
5.7940,-2.1510,-6.5925,2.1274,7.253
5.8030,-1.9879,-6.5001,1.9508,7.072
5.8190,-1.7339,-6.9993,2.6073,7.668
5.8340,-1.8160,-8.3099,3.2500,9.106
5.8350,-1.8160,-8.3099,3.2500,9.106
5.8540,-1.9865,-8.7746,2.2752,9.280
5.8710,-2.1500,-8.6931,-0.5518,8.972
5.8720,-2.1500,-8.6931,-0.5518,8.972
5.8840,-1.4890,-9.5928,1.6762,9.851
5.9000,0.1921,-5.8593,6.8905,9.047
5.9000,0.1921,-5.8593,6.8905,9.047
5.9170,2.4625,-3.9557,6.5275,8.020
5.9170,2.4074,-3.2525,5.9850,7.225
5.9340,1.7003,-2.6867,4.1109,5.197
5.9510,1.5199,-2.8523,-1.3003,3.484
5.9510,1.5199,-2.8523,-1.3003,3.484
5.9690,1.4804,-2.2093,-7.0240,7.511
5.9690,1.4804,-2.2093,-7.0240,7.511
5.9840,2.7882,-1.4642,-9.9487,10.435
6.0000,1.5506,-3.0442,1.7545,3.841
6.0010,1.5506,-3.0442,1.7545,3.841
6.0180,-2.3508,-3.8957,8.6510,9.775
6.0350,-0.1706,-1.4894,-0.7364,1.670
6.0350,-0.1706,-1.4894,-0.7364,1.670
6.0520,3.8554,-0.9526,-3.3632,5.204
6.0530,3.8554,-0.9526,-3.3632,5.204
6.0710,3.9555,-1.7024,-3.9743,5.860
6.0880,2.9984,-3.4491,-2.6405,5.278
6.0890,2.9984,-3.4491,-2.6405,5.278
6.1020,1.8255,-14.2373,-4.5177,15.048
6.1180,3.4612,-5.1158,-8.7216,10.687
6.1190,3.4612,-5.1158,-8.7216,10.687
6.1350,2.1511,2.9763,-6.5768,7.533
6.1360,2.1511,2.9763,-6.5768,7.533
6.1510,3.5510,13.6586,-6.9057,15.712
6.1710,3.0940,9.9734,-5.8800,11.984
6.1710,3.0940,9.9734,-5.8800,11.984
6.1880,3.7556,7.0569,-4.0074,8.942
6.1890,3.7556,7.0569,-4.0074,8.942
6.2010,4.0345,7.7380,-3.9796,9.591
6.2180,4.5577,7.8832,-4.0688,9.974
6.2350,4.2881,7.4808,-4.7889,9.863
6.2370,3.9617,7.1534,-5.1571,9.668
6.2520,3.1721,6.1267,-4.7087,8.353
6.2520,3.1721,6.1267,-4.7087,8.353
6.2710,2.4721,5.2693,-2.4800,6.327
6.2710,2.4721,5.2693,-2.4800,6.327
6.2910,-0.0867,3.9038,0.4876,3.935
6.3020,-1.8905,3.0372,2.2284,4.215
6.3190,-5.8351,-0.1530,7.0540,9.156
6.3190,-5.8351,-0.1530,7.0540,9.156
6.3340,-9.7801,-4.6573,6.9969,12.896
6.3340,-9.7801,-4.6573,6.9969,12.896
6.3510,-9.8550,-8.7837,2.2265,13.388
6.3680,-6.8619,-9.0360,2.5776,11.635
6.3690,-6.8619,-9.0360,2.5776,11.635
6.3840,-3.7077,-8.9646,3.0237,10.161
6.4010,1.0021,-9.3861,4.1084,10.295
6.4010,1.0021,-9.3861,4.1084,10.295
6.4180,3.3658,-8.1572,3.6301,9.542
6.4180,3.7570,-6.5711,3.0056,8.144
6.4360,4.2516,-2.9740,0.9651,5.278
6.4520,3.6943,0.0490,-1.3499,3.933
6.4520,3.6943,0.0490,-1.3499,3.933
6.4700,5.2822,2.5621,-2.3876,6.338
6.4700,5.2822,2.5621,-2.3876,6.338
6.4910,10.8739,6.5251,-4.4990,13.456
6.4910,10.8739,6.5251,-4.4990,13.456
6.5020,11.6765,6.6607,-4.9424,14.322
6.5190,8.3548,5.2405,-7.7778,12.560
6.5360,3.1796,3.3730,-8.3252,9.529
6.5370,3.1796,3.3730,-8.3252,9.529
6.5540,-1.8839,-0.5550,-5.5692,5.905
6.5730,-6.7577,-8.0659,-4.5996,11.484
6.5740,-6.7577,-8.0659,-4.5996,11.484
6.5990,-4.4927,-5.5098,2.7889,7.637
6.5990,-4.4927,-5.5098,2.7889,7.637
6.6000,-4.4927,-5.5098,2.7889,7.637
6.6070,-1.0631,-1.5144,2.5930,3.185
6.6180,1.2041,1.3864,1.2402,2.216
6.6360,2.3303,3.4377,-3.6330,5.518
6.6530,1.5900,2.7654,-5.4951,6.354
6.6540,1.5900,2.7654,-5.4951,6.354
6.6720,0.8373,1.7825,-2.6266,3.283
6.6730,0.8373,1.7825,-2.6266,3.283
6.6920,0.1993,1.6905,0.1082,1.706
6.6930,-0.1549,1.6363,0.2590,1.664
6.7020,-0.9097,1.5308,-0.1074,1.784
6.7190,-2.1402,1.0586,-0.5519,2.451
6.7360,-3.4470,-0.0030,-0.0771,3.448
6.7360,-3.4470,-0.0030,-0.0771,3.448
6.7520,-2.8014,0.0557,0.5768,2.861
6.7720,-0.6757,0.6941,1.3481,1.660
6.7720,-0.6757,0.6941,1.3481,1.660
6.7900,1.0955,1.2332,1.6749,2.351
6.7910,1.0955,1.2332,1.6749,2.351
6.8020,1.6198,1.3606,1.3514,2.510
6.8190,2.2265,1.6114,0.8440,2.875
6.8200,2.3562,1.6059,0.6578,2.926
6.8360,2.5404,1.4380,0.0545,2.920
6.8520,2.4255,1.7405,0.1174,2.988
6.8520,2.4255,1.7405,0.1174,2.988
6.8720,2.0288,1.8196,1.5102,3.116
6.8720,2.0288,1.8196,1.5102,3.116
6.8940,-0.9968,1.3324,1.2662,2.091
6.8950,-0.9968,1.3324,1.2662,2.091
6.9040,-1.9656,0.9664,1.3193,2.557
6.9200,-5.8659,-1.1978,1.9818,6.306
6.9350,-7.6465,-2.0328,1.4383,8.042
6.9360,-7.6465,-2.0328,1.4383,8.042
6.9530,-8.4284,-2.0916,0.9666,8.738
6.9720,-7.3214,-2.3042,1.7644,7.876
6.9720,-6.5853,-2.3023,1.9800,7.252
6.9920,-4.5056,-3.4721,2.6585,6.279
6.9920,-4.5056,-3.4721,2.6585,6.279
7.0010,-4.5393,-4.8878,2.6501,7.178
7.0210,-4.9256,-7.0596,2.7257,9.029
7.0210,-4.9256,-7.0596,2.7257,9.029
7.0350,-4.4694,-6.9198,4.2308,9.261
7.0520,-3.2248,-5.1296,6.7656,9.082
7.0520,-3.2248,-5.1296,6.7656,9.082
7.0700,-2.4961,-2.5618,7.5462,8.351
7.0700,-2.4961,-2.5618,7.5462,8.351
7.0860,-2.8446,-0.5815,4.3482,5.228
7.1030,-3.1616,-2.4358,-1.0714,4.132
7.1030,-3.1616,-2.4358,-1.0714,4.132
7.1190,-2.7833,-6.2484,-5.0554,8.506
7.1360,-1.2745,-7.0501,-7.4123,10.309
7.1360,-1.2745,-7.0501,-7.4123,10.309
7.1520,-0.1693,-7.8866,-7.7276,11.043
7.1520,-0.1693,-7.8866,-7.7276,11.043
7.1710,4.3419,-9.1134,-3.1730,10.582
7.1850,6.6668,-7.0460,4.4807,10.685
7.1860,6.6668,-7.0460,4.4807,10.685
7.2020,4.6968,-4.7319,5.6578,8.744
7.2190,3.0978,-2.6235,-2.7114,4.882
7.2190,3.0978,-2.6235,-2.7114,4.882
7.2360,2.6703,-0.5179,-5.4701,6.109
7.2370,2.6703,-0.5179,-5.4701,6.109
7.2530,2.7250,0.9497,-6.2728,6.905
7.2710,2.8871,2.5561,-5.2981,6.553
7.2720,2.8871,2.5561,-5.2981,6.553
7.2910,3.4977,3.5691,-5.7088,7.587
7.2920,3.4977,3.5691,-5.7088,7.587
7.3020,3.8316,4.0004,-5.8418,8.050
7.3210,4.4850,4.9561,-5.6268,8.737
7.3210,4.4850,4.9561,-5.6268,8.737
7.3370,5.0229,5.8946,-5.3203,9.396
7.3530,5.5691,6.4692,-4.7597,9.773
7.3540,5.5691,6.4692,-4.7597,9.773
7.3730,6.7477,6.6501,-4.5611,10.515
7.3870,7.4091,6.2626,-4.4847,10.688
7.3900,7.4364,6.1524,-4.4452,10.626
7.4020,7.1767,6.1690,-4.3421,10.412
7.4200,5.8768,6.8941,-4.4587,10.097
7.4200,5.8768,6.8941,-4.4587,10.097
7.4370,4.5298,7.2792,-2.5155,8.935
7.4540,2.2820,5.8971,0.8203,6.376
7.4540,2.2820,5.8971,0.8203,6.376
7.4700,-1.1252,1.7933,7.4401,7.735
7.4710,-1.1252,1.7933,7.4401,7.735
7.4890,-19.1124,-15.4931,16.3375,29.534
7.5100,-18.6316,-20.6204,-0.2519,27.792
7.5110,-18.3633,-19.1242,1.5267,26.557
7.5200,-16.1252,-15.1554,2.1929,22.238
7.5370,-1.5645,-1.0280,1.7847,2.586
7.5370,-1.5645,-1.0280,1.7847,2.586
7.5540,3.0355,4.9131,1.5591,5.982
7.5730,6.9130,3.0752,-4.2190,8.663
7.5730,6.9130,3.0752,-4.2190,8.663
7.5930,7.5480,-1.0800,-7.9832,11.039
7.5930,7.5480,-1.0800,-7.9832,11.039
7.6020,5.3152,-2.1791,-4.7854,7.477
7.6210,-8.6073,-14.2253,17.2289,23.943
7.6210,-8.6073,-14.2253,17.2289,23.943
7.6370,-3.5804,-18.2437,1.3657,18.642
7.6540,11.3804,-2.5838,-6.0321,13.137
7.6550,12.6940,0.3730,-6.0907,14.084
7.6730,11.0118,4.6984,-5.1687,13.040
7.6930,8.8359,8.0826,-6.5443,13.647
7.6940,8.5234,8.5163,-7.8328,14.371
7.7040,7.6929,8.7991,-10.1252,15.464
7.7200,4.8814,7.7047,-11.2321,14.469
7.7210,4.8814,7.7047,-11.2321,14.469
7.7370,1.0866,5.1637,-5.7760,7.823
7.7380,-1.0100,3.1055,-2.4541,4.085
7.7550,-5.9148,-5.4066,-0.2344,8.017
7.7730,-8.9571,-12.0890,4.6667,15.753
7.7730,-8.9571,-12.0890,4.6667,15.753
7.7910,-3.2055,-3.0147,2.5739,5.098
7.7920,-3.2055,-3.0147,2.5739,5.098
7.8040,0.6908,2.9829,-1.4824,3.402
7.8210,0.9177,2.0512,-4.7187,5.226
7.8210,0.9177,2.0512,-4.7187,5.226
7.8360,1.3010,1.8639,-4.2146,4.788
7.8540,1.5220,2.5904,-3.0168,4.258
7.8550,1.5220,2.5904,-3.0168,4.258
7.8710,1.3641,3.5716,-1.6809,4.176
7.8910,0.0052,3.0374,0.5545,3.088
7.8920,0.0052,3.0374,0.5545,3.088
7.9130,-1.7304,-0.3083,1.0917,2.069
7.9140,-1.7304,-0.3083,1.0917,2.069
7.9220,-1.1081,-0.5178,0.5933,1.359
7.9430,0.6500,1.1377,1.1177,1.722
7.9440,0.6500,1.1377,1.1177,1.722
7.9590,1.5150,1.7077,1.4494,2.704
7.9750,1.6269,1.3971,0.7565,2.274
7.9760,1.6269,1.3971,0.7565,2.274
7.9950,1.1373,1.0525,-0.3371,1.586
7.9950,1.1373,1.0525,-0.3371,1.586
8.0040,0.6204,0.9434,-0.3667,1.187
8.0210,-1.3386,0.3157,0.2030,1.390
8.0380,-3.0052,0.4292,1.5580,3.412
8.0390,-3.0052,0.4292,1.5580,3.412
8.0560,-5.1877,0.4538,3.5648,6.311
8.0740,-6.7977,0.0703,4.3956,8.095
8.0750,-6.7977,0.0703,4.3956,8.095
8.0960,-7.1357,-1.1932,2.0654,7.524
8.0970,-7.1357,-1.1932,2.0654,7.524
8.1050,-7.0360,-1.8747,1.1946,7.379
8.1220,-6.5699,-2.7993,1.5295,7.303
8.1230,-6.5699,-2.7993,1.5295,7.303
8.1390,-5.4716,-4.1614,2.7866,7.418
8.1560,-5.6500,-6.1507,3.5155,9.062
8.1570,-5.6500,-6.1507,3.5155,9.062
8.1720,-5.1666,-6.4698,4.5992,9.471
8.1920,-3.9028,-5.4051,5.4976,8.641
8.1920,-3.9028,-5.4051,5.4976,8.641
8.2150,-2.1721,-2.0041,3.1593,4.326
8.2150,-2.1721,-2.0041,3.1593,4.326
8.2210,-1.9619,-1.4220,2.0311,3.162
8.2410,-2.0129,-1.9373,-1.8960,3.376
8.2420,-2.3510,-2.7706,-2.9282,4.667
8.2560,-2.8422,-4.8855,-4.7549,7.386
8.2770,-1.7709,-5.7505,-5.7446,8.319
8.2770,-1.7709,-5.7505,-5.7446,8.319
8.2990,0.8130,-6.8330,-5.7411,8.962
8.3000,1.9856,-7.1706,-4.9687,8.947
8.3100,4.3766,-7.7354,-2.3859,9.202
8.3210,5.5008,-7.1889,0.7195,9.081
8.3390,3.8460,-5.0758,2.6648,6.903
8.3400,3.0194,-4.5841,1.6637,5.736
8.3550,1.8984,-2.8225,-2.1770,4.039
8.3560,1.8984,-2.8225,-2.1770,4.039
8.3730,2.2834,-0.5186,-4.3165,4.911
8.3940,2.4635,1.3568,-5.4548,6.137
8.3950,2.4635,1.3568,-5.4548,6.137
8.4150,3.1813,2.2971,-5.4513,6.717
8.4160,3.1813,2.2971,-5.4513,6.717
8.4220,3.6603,2.7262,-5.1661,6.893
8.4390,4.4835,3.2147,-4.8287,7.332
8.4530,5.0068,3.6600,-4.8737,7.888
8.4550,5.0068,3.6600,-4.8737,7.888
8.4730,5.9806,4.4109,-4.3170,8.594
8.4740,5.9806,4.4109,-4.3170,8.594
8.4870,6.4729,4.7665,-4.3708,9.150
8.5040,7.2471,5.1835,-4.2627,9.877
8.5050,7.2471,5.1835,-4.2627,9.877
8.5220,7.7009,4.9493,-4.3122,10.119
8.5230,7.7009,4.9493,-4.3122,10.119
8.5390,7.2261,4.9563,-4.4312,9.819
8.5560,6.4059,5.8694,-4.8394,9.945
8.5560,6.4059,5.8694,-4.8394,9.945
8.5710,5.5633,6.4931,-4.1610,9.509
8.5910,2.9419,5.4393,-3.0717,6.905
8.5910,2.9419,5.4393,-3.0717,6.905
8.6130,-2.0462,-2.4922,7.1897,7.880
8.6140,-2.0462,-2.4922,7.1897,7.880
8.6220,-9.6029,-11.7536,22.6648,27.277
8.6380,-18.9269,-18.3479,16.8538,31.288
8.6540,-21.7537,-16.5445,1.6303,27.379
8.6540,-21.7537,-16.5445,1.6303,27.379
8.6720,-7.5454,-1.0132,0.5344,7.632
8.6720,-7.5454,-1.0132,0.5344,7.632
8.6920,0.9788,4.4704,1.8047,4.919
8.6920,0.9788,4.4704,1.8047,4.919
8.7100,3.4751,6.5187,-3.7537,8.286
8.7220,5.2657,6.3326,-6.1757,10.294
8.7220,6.5718,5.9917,-7.1511,11.412
8.7380,10.6991,4.1059,-8.4962,14.266
8.7550,11.8812,-0.2292,-5.8677,13.253
8.7560,11.5285,-2.7702,-3.0733,12.248
8.7720,3.6027,-18.1196,25.4578,31.455
8.7920,-7.8785,-22.5356,-0.1518,23.874
8.7920,-7.8785,-22.5356,-0.1518,23.874
8.8120,3.8843,0.0483,-5.0432,6.366
8.8120,3.8843,0.0483,-5.0432,6.366
8.8220,5.8763,4.5221,-3.7672,8.317
8.8390,6.2309,7.2234,-5.2381,10.883
8.8400,6.1416,7.8405,-6.2571,11.762
8.8560,5.7036,9.1849,-9.7623,14.567
8.8720,4.0821,8.5152,-10.6335,14.221
8.8720,4.0821,8.5152,-10.6335,14.221
8.8910,1.5758,6.1854,-7.9412,10.189
8.8920,0.2133,4.6534,-6.0457,7.632
8.9120,-5.7686,-4.9266,1.4575,7.725
8.9130,-5.7686,-4.9266,1.4575,7.725
8.9260,-7.5600,-8.0586,4.6299,11.980
8.9400,-4.5097,-5.2683,5.0010,8.550
8.9550,1.2836,0.3438,2.8176,3.115
8.9560,1.2836,0.3438,2.8176,3.115
8.9730,2.1325,1.3603,-1.1382,2.774
8.9910,2.3612,2.4919,-2.8075,4.435
8.9920,2.4629,2.8187,-3.2888,4.983
9.0120,2.5027,3.1776,-3.9110,5.626
9.0120,2.4339,3.1276,-3.8156,5.501
9.0220,2.0622,2.9595,-3.3965,4.955
9.0390,1.0627,2.1701,-2.2018,3.269
9.0400,0.6644,1.6777,-1.6718,2.460
9.0560,-0.1822,0.5697,-0.1765,0.624
9.0730,-0.6057,0.2244,1.3377,1.485
9.0730,-0.6057,0.2244,1.3377,1.485
9.0920,-0.2965,0.3416,3.3196,3.350
9.0920,-0.2965,0.3416,3.3196,3.350
9.1140,0.9792,0.7736,2.9086,3.165
9.1150,0.9792,0.7736,2.9086,3.165
9.1210,1.2518,0.7363,1.7404,2.267
9.1380,1.1716,0.3444,0.0631,1.223
9.1550,0.7241,0.0234,-1.2742,1.466
9.1550,0.7241,0.0234,-1.2742,1.466
9.1710,0.0336,0.6839,-0.7329,1.003
9.1890,-2.3841,0.3855,1.3098,2.747
9.1900,-2.3841,0.3855,1.3098,2.747
9.2050,-4.5423,-0.4106,2.3331,5.123
9.2050,-4.5423,-0.4106,2.3331,5.123
9.2210,-6.1973,-0.4723,3.0324,6.916
9.2380,-7.2571,-0.3453,3.3130,7.985
9.2390,-7.4477,-0.2635,3.3057,8.153
9.2550,-7.6657,-0.4120,2.6820,8.132
9.2560,-7.6657,-0.4120,2.6820,8.132
9.2720,-6.9596,-1.6775,1.8216,7.387
9.2920,-5.7741,-3.6194,1.9328,7.083
9.2930,-5.7741,-3.6194,1.9328,7.083
9.3150,-4.9208,-4.9695,1.7112,7.200
9.3160,-4.6471,-4.9662,1.7599,7.025
9.3160,-4.6471,-4.9662,1.7599,7.025
9.3260,-4.4420,-4.9531,1.8008,6.893
9.3390,-4.8245,-5.7835,2.4128,7.909
9.3550,-5.2120,-5.9616,4.1381,8.935
9.3720,-4.0543,-3.1544,4.7944,7.027
9.3730,-4.0543,-3.1544,4.7944,7.027
9.3930,-1.9667,-3.3856,2.4670,4.628
9.3940,-1.9667,-3.3856,2.4670,4.628
9.4160,0.0556,-4.8378,-2.9321,5.657
9.4160,0.4598,-4.9927,-3.9170,6.362
9.4220,0.8921,-5.0690,-4.6675,6.948
9.4400,2.8377,-5.3322,-6.8283,9.117
9.4400,2.8377,-5.3322,-6.8283,9.117
9.4560,5.2733,-5.6249,-6.8959,10.344
9.4730,6.9333,-5.7607,-1.2467,9.100
9.4730,6.0793,-5.6429,2.7114,8.727
9.4920,1.6919,-5.7671,5.5339,8.170
9.4930,1.2944,-5.3763,2.5825,6.103
9.5060,1.3679,-4.2590,-1.1016,4.607
9.5220,2.2877,-1.7916,-3.2281,4.343
9.5220,2.2877,-1.7916,-3.2281,4.343
9.5390,1.9747,0.1076,-5.0513,5.425
9.5560,1.9925,1.8669,-5.3926,6.044
9.5560,1.9925,1.8669,-5.3926,6.044
9.5720,1.9729,2.6832,-5.3583,6.309
9.5920,3.3234,3.4004,-4.8253,6.774
9.5920,3.3234,3.4004,-4.8253,6.774
9.6140,4.3881,4.3493,-4.7316,7.782
9.6140,4.3881,4.3493,-4.7316,7.782
9.6230,4.5818,4.7726,-4.6882,8.109
9.6390,4.8929,5.4218,-4.5433,8.601
9.6400,4.8929,5.4218,-4.5433,8.601
9.6570,5.3380,6.2999,-4.6652,9.484
9.6580,5.3380,6.2999,-4.6652,9.484
9.6730,5.9227,6.9771,-4.6814,10.280
9.6920,5.9887,7.3455,-4.3539,10.430
9.6930,5.9887,7.3455,-4.3539,10.430
9.7150,4.8062,7.6204,-3.6829,9.733
9.7150,4.8062,7.6204,-3.6829,9.733
9.7220,4.4057,7.7777,-3.2248,9.503
9.7390,2.1846,7.8941,-0.9419,8.245
9.7390,2.1846,7.8941,-0.9419,8.245
9.7560,-0.3335,6.3046,0.6414,6.346
9.7720,-2.5715,1.4716,8.5212,9.022
9.7720,-2.5715,1.4716,8.5212,9.022
9.7900,-19.7834,-16.2442,13.4371,28.910
9.7910,-20.9575,-18.7420,5.5154,28.651
9.8060,-20.2916,-23.0545,0.1373,30.713
9.8220,-10.0660,-13.2371,1.7487,16.721
9.8220,-10.0660,-13.2371,1.7487,16.721
9.8390,3.7926,1.0236,1.7541,4.302
9.8400,3.7926,1.0236,1.7541,4.302
9.8550,5.3249,5.4342,1.3494,7.727
9.8720,5.9850,6.0706,-7.1909,11.153
9.8720,5.9850,6.0706,-7.1909,11.153
9.8900,5.3181,3.1640,-9.0211,10.940
9.8900,5.3181,3.1640,-9.0211,10.940
9.9060,0.7395,-4.9571,-2.6696,5.679
9.9220,-7.0132,-22.9691,12.1191,26.901
9.9220,-7.0132,-22.9691,12.1191,26.901
9.9400,6.7602,-10.5024,-4.6655,13.333
9.9570,13.4054,5.1039,-6.4485,15.727
9.9580,13.4054,5.1039,-6.4485,15.727
9.9740,10.1404,8.3626,-4.6372,13.938
9.9740,10.1404,8.3626,-4.6372,13.938
9.9940,7.0906,9.4805,-8.9954,14.869
10.0150,3.6657,7.5561,-9.1098,12.390
10.0160,3.6657,7.5561,-9.1098,12.390
10.0160,3.6657,7.5561,-9.1098,12.390
10.0260,1.0716,5.3137,-8.5691,10.140
10.0400,-3.9876,-1.9414,-4.6133,6.399
10.0570,-9.3207,-9.9589,6.6994,15.197
10.0730,-7.5879,-10.1743,6.2207,14.135
10.0740,-7.5879,-10.1743,6.2207,14.135
10.0940,1.4593,0.5037,-0.8148,1.746
10.0940,1.4593,0.5037,-0.8148,1.746
10.1090,2.0607,0.6085,-5.3067,5.725
10.1240,2.2345,1.2590,-4.8737,5.507
10.1240,2.2345,1.2590,-4.8737,5.507
10.1410,2.5235,2.0648,-2.7372,4.257
10.1580,2.1514,2.5162,-1.1125,3.492
10.1580,2.1514,2.5162,-1.1125,3.492
10.1740,1.7612,2.5141,-0.6822,3.145
10.1740,1.7612,2.5141,-0.6822,3.145
10.1940,0.8713,1.4506,0.1131,1.696
10.2170,0.5204,0.5507,-0.4781,0.896
10.2170,0.5204,0.5507,-0.4781,0.896
10.2170,0.5204,0.5507,-0.4781,0.896
10.2260,0.5990,0.7269,-0.3501,1.005
10.2400,0.5502,1.2668,1.2521,1.864
10.2570,0.3767,1.2949,2.5487,2.883
10.2580,0.3118,1.2203,2.4051,2.715
10.2750,0.0969,1.2392,1.0767,1.644
10.2940,-0.7309,0.7008,-1.2684,1.623
10.2940,-0.7309,0.7008,-1.2684,1.623
10.3100,-1.4572,0.3638,-1.9831,2.488
10.3110,-1.7157,0.5038,-1.7719,2.517
10.3230,-2.4509,0.9717,-0.8131,2.759
10.3410,-5.0233,0.7267,2.3214,5.581
10.3580,-7.7537,-0.6569,5.1191,9.314
10.3580,-8.5587,-0.9756,5.8566,10.416
10.3750,-10.1719,-1.4486,6.0876,11.943
10.3760,-10.1719,-1.4486,6.0876,11.943
10.3940,-9.7140,-1.1741,2.4769,10.093
10.4140,-8.4050,-2.0578,1.4604,8.776
10.4140,-8.4050,-2.0578,1.4604,8.776
10.4240,-8.3472,-3.5915,0.8516,9.127
10.4410,-7.3218,-5.9542,0.8108,9.472
10.4420,-7.3218,-5.9542,0.8108,9.472
10.4570,-4.7220,-5.8793,2.2162,7.860
10.4580,-4.7220,-5.8793,2.2162,7.860
10.4740,-0.7833,-4.1417,5.9198,7.267
10.4920,-0.0972,-2.0268,5.4491,5.815
10.4920,-0.0972,-2.0268,5.4491,5.815
10.5080,-1.0405,-1.8389,2.8118,3.517
10.5080,-1.0405,-1.8389,2.8118,3.517
10.5240,-1.4643,-4.2834,-3.4356,5.683
10.5400,-1.4048,-5.7072,-5.4142,7.991
10.5400,-1.4048,-5.7072,-5.4142,7.991
10.5570,0.1507,-6.6950,-6.1148,9.068
10.5740,3.6283,-8.9032,-6.8617,11.812
10.5750,5.0670,-9.4560,-5.6242,12.113
10.5950,5.6494,-7.2550,5.4592,10.694
10.5950,5.6494,-7.2550,5.4592,10.694
10.6160,1.3220,-3.6728,3.0092,4.929
10.6170,1.3220,-3.6728,3.0092,4.929
10.6240,0.6078,-2.5100,-0.7532,2.690
10.6420,0.4520,-1.1845,-4.6856,4.854
10.6580,1.7151,0.2918,-5.5289,5.796
10.6580,1.7151,0.2918,-5.5289,5.796
10.6750,3.0438,1.2257,-4.9531,5.941
10.6760,3.3563,1.5427,-5.0517,6.258
10.6950,4.2187,2.8992,-5.0375,7.182
10.6960,4.2187,2.8992,-5.0375,7.182
10.7140,4.7589,3.8049,-4.9766,7.867
10.7240,5.3006,4.6660,-4.8825,8.585
10.7420,5.7131,5.5592,-4.5826,9.195
10.7420,5.7131,5.5592,-4.5826,9.195
10.7580,6.2805,6.5504,-4.2971,10.041
10.7590,6.2805,6.5504,-4.2971,10.041
10.7760,7.0108,6.9240,-4.0886,10.668
10.7950,7.5453,6.1602,-3.9284,10.503
10.7960,7.5531,5.8973,-3.8048,10.310
10.8150,7.5962,5.5670,-3.2722,9.970
10.8160,7.4445,5.5972,-3.2603,9.868
10.8240,7.1979,5.6734,-3.2837,9.735
10.8420,5.8125,5.9728,-2.7545,8.778
10.8430,5.8125,5.9728,-2.7545,8.778
10.8590,4.2745,5.6908,-1.4656,7.267
10.8750,-0.9453,1.7732,4.2355,4.688
10.8750,-0.9453,1.7732,4.2355,4.688
10.8950,-19.2438,-14.6644,18.3069,30.340
10.8950,-19.2438,-14.6644,18.3069,30.340
10.9080,-24.2950,-21.5198,5.5079,32.919
10.9240,-17.6607,-17.3012,3.7806,25.010
10.9420,-1.6794,-4.3419,1.4295,4.870
10.9420,-1.6794,-4.3419,1.4295,4.870
10.9570,3.9728,0.1697,2.6561,4.782
10.9580,3.9728,0.1697,2.6561,4.782
10.9740,5.0807,0.4548,-0.0863,5.102
10.9920,2.4229,-1.2373,-6.8317,7.353
10.9930,2.4229,-1.2373,-6.8317,7.353
11.0080,-2.1931,-1.3311,-5.9361,6.467
11.0080,-2.1931,-1.3311,-5.9361,6.467
11.0240,-5.0874,-3.8922,-0.0755,6.406
11.0410,4.2713,-2.5641,4.9799,7.044
11.0420,8.5034,-1.7911,6.1477,10.645
11.0580,16.3384,2.0290,0.8744,16.487
11.0740,13.3388,4.0303,-2.6076,14.176
11.0740,13.3388,4.0303,-2.6076,14.176
11.0920,8.6094,5.9779,-7.0389,12.625
11.0930,8.6094,5.9779,-7.0389,12.625
11.1150,4.8105,4.1350,-11.2884,12.949
11.1160,4.8105,4.1350,-11.2884,12.949
11.1250,2.1290,1.2599,-10.6256,10.910
11.1410,-3.5682,-5.0535,-8.4407,10.465
11.1580,-9.9287,-9.4519,2.5122,13.937
11.1580,-11.4897,-9.6089,6.9244,16.501
11.1740,-8.6982,-4.2853,7.3676,12.178
11.1750,-8.6982,-4.2853,7.3676,12.178
11.1930,-1.1294,2.3246,-1.4949,2.986
11.2080,1.4639,1.8921,-5.0803,5.615
11.2080,1.4639,1.8921,-5.0803,5.615
11.2250,2.7627,1.3859,-1.8689,3.612
11.2410,2.7277,1.9238,0.0834,3.339
11.2410,2.7277,1.9238,0.0834,3.339
11.2580,2.0840,2.4665,0.2155,3.236
11.2580,1.7655,2.6632,-0.0364,3.195
11.2760,0.4871,2.9485,-0.8626,3.110
11.2960,-2.2207,0.7327,-0.9358,2.519
11.2970,-2.6644,0.3033,-0.8050,2.800
11.3120,-3.1024,-0.0011,-0.3425,3.121
11.3120,-3.1024,-0.0011,-0.3425,3.121
11.3260,-2.3837,0.7609,0.5258,2.557
11.3420,-1.0451,1.3565,1.9613,2.604
11.3430,-1.0451,1.3565,1.9613,2.604
11.3590,0.8144,1.6013,3.0237,3.517
11.3760,1.5889,1.2678,1.7652,2.692
11.3760,1.5889,1.2678,1.7652,2.692
11.3960,1.6979,0.6223,-0.7216,1.947
11.3960,1.6979,0.6223,-0.7216,1.947
11.4160,1.1716,0.8536,-1.3619,1.989
11.4160,1.1716,0.8536,-1.3619,1.989
11.4260,0.7697,1.0913,-0.8835,1.601
11.4420,-0.0696,1.3478,0.9384,1.644
11.4640,-1.4679,0.2389,2.9342,3.290
11.4640,-2.1730,-0.4282,3.3894,4.049
11.4760,-3.9573,-1.7815,4.1202,5.984
11.4960,-7.2638,-2.8670,3.7299,8.654
11.4970,-7.2638,-2.8670,3.7299,8.654
11.5180,-9.1224,-1.5853,1.4111,9.366
11.5180,-9.1224,-1.5853,1.4111,9.366
11.5250,-9.1794,-1.3181,1.3572,9.372
11.5420,-8.8361,-1.3756,1.5957,9.084
11.5420,-8.8361,-1.3756,1.5957,9.084
11.5580,-8.2246,-3.0006,1.7355,8.925
11.5750,-7.7185,-4.6967,2.0664,9.268
11.5760,-7.4597,-5.0879,2.4141,9.347
11.5940,-5.8415,-4.9516,4.3694,8.817
11.5950,-4.9688,-4.4655,5.0939,8.401
11.6090,-3.1976,-3.2280,6.0002,7.526
11.6260,-1.1681,-0.9776,5.1751,5.395
11.6260,-1.1681,-0.9776,5.1751,5.395
11.6430,-1.1600,-1.1628,1.5523,2.260
11.6590,-1.5196,-3.6678,-2.6538,4.775
11.6590,-1.5196,-3.6678,-2.6538,4.775
11.6760,-1.4220,-5.2948,-5.1465,7.520
11.6930,-0.7633,-6.5632,-6.4041,9.202
11.6940,-0.4986,-7.1708,-6.8767,9.948
11.7090,0.8058,-9.8339,-6.5158,11.824
11.7260,4.5793,-9.1747,3.0528,10.699
11.7260,4.5793,-9.1747,3.0528,10.699
11.7420,2.8041,-4.6638,6.5179,8.491
11.7420,2.8041,-4.6638,6.5179,8.491
11.7600,1.1585,-1.7964,-1.1779,2.441
11.7760,0.8227,-0.6273,-3.7628,3.902
11.7770,0.8227,-0.6273,-3.7628,3.902
11.7960,0.5515,0.7588,-6.3036,6.373
11.7970,0.8130,1.0866,-6.0105,6.162
11.8140,1.9168,1.9295,-5.0812,5.763
11.8150,1.9168,1.9295,-5.0812,5.763
11.8260,2.4817,2.3394,-5.1443,6.172
11.8430,3.5990,2.5568,-5.0909,6.738
11.8600,4.6672,3.2119,-5.0427,7.585
11.8610,4.6672,3.2119,-5.0427,7.585
11.8770,5.2953,3.8393,-4.8256,8.128
11.8970,5.9370,4.4544,-4.9606,8.927
11.8970,5.9370,4.4544,-4.9606,8.927
11.9170,6.7898,4.9782,-4.9627,9.773
11.9180,6.9410,4.9857,-5.0565,9.930
11.9260,7.0648,4.9465,-5.1538,10.047
11.9430,6.9115,4.7629,-5.5524,10.064
11.9430,6.9115,4.7629,-5.5524,10.064
11.9610,6.2179,4.8942,-5.3277,9.539
11.9770,4.5655,5.4953,-4.1441,8.259
11.9780,4.5655,5.4953,-4.1441,8.259
11.9980,2.7831,5.6180,-0.6078,6.299
11.9990,2.0853,5.2662,0.6041,5.696
12.0160,-0.8073,2.8864,5.8484,6.572
12.0170,-0.8073,2.8864,5.8484,6.572
12.0270,-4.0973,-0.6009,11.7961,12.502
12.0440,-18.6095,-11.5562,10.5732,24.324
12.0600,-19.2627,-15.8492,0.2938,24.947
12.0610,-19.2627,-15.8492,0.2938,24.947
12.0780,-4.4469,-8.8532,2.2211,10.153
12.0970,4.5008,1.1942,-0.1927,4.661
12.0980,4.5008,1.1942,-0.1927,4.661
12.1150,5.5909,4.2630,-0.3939,7.042
12.1160,5.7476,4.4859,-0.6689,7.322
12.1280,6.2477,3.9077,-3.2747,8.064
12.1440,5.9082,2.4423,-6.3511,9.012
12.1450,5.5856,1.7783,-5.6265,8.125
12.1600,1.2733,-3.6990,0.4309,3.936
12.1780,-11.6953,-19.9692,8.9685,24.819
12.1780,-11.6953,-19.9692,8.9685,24.819
12.1970,4.5506,-6.7216,-5.0533,9.562
12.1970,4.5506,-6.7216,-5.0533,9.562
12.2140,11.8310,2.7040,-3.8661,12.737
12.2270,9.6651,5.5402,-3.0900,11.561
12.2270,9.6651,5.5402,-3.0900,11.561
12.2440,8.2494,7.2021,-5.5709,12.287
12.2610,6.9371,7.4089,-9.3361,13.791
12.2610,6.9371,7.4089,-9.3361,13.791
12.2780,4.8734,6.0885,-8.8256,11.778
12.2980,-2.7116,-2.6021,-2.9365,4.769
12.2980,-2.7116,-2.6021,-2.9365,4.769
12.3180,-7.2968,-9.8387,5.6576,13.493
12.3180,-7.2968,-9.8387,5.6576,13.493
12.3270,-6.7682,-9.0875,7.5770,13.631
12.3440,-1.7951,-1.8411,4.2774,4.991
12.3610,1.8194,2.4485,-2.7005,4.074
12.3610,1.8194,2.4485,-2.7005,4.074
12.3770,1.8128,1.9536,-4.7682,5.462
12.3980,1.4470,2.4104,-2.8952,4.036
12.3980,1.3946,2.6262,-2.5665,3.928
12.4170,0.7810,3.0754,-2.1159,3.814
12.4180,0.4301,3.1414,-2.0967,3.801
12.4270,0.0284,3.1510,-2.0168,3.741
12.4440,-1.7675,2.1120,-0.9456,2.912
12.4440,-1.7675,2.1120,-0.9456,2.912
12.4620,-2.9526,0.5809,-0.4699,3.046
12.4780,-2.8862,0.4031,0.0694,2.915
12.4790,-2.8862,0.4031,0.0694,2.915
12.4940,-1.3452,0.8302,1.1936,1.981
12.5150,1.8297,1.0396,3.0875,3.737
12.5160,1.8297,1.0396,3.0875,3.737
12.5380,2.5070,0.8563,2.2092,3.449
12.5380,2.3804,0.6326,1.6991,2.992
12.5380,2.3804,0.6326,1.6991,2.992
12.5480,2.2089,0.4122,1.1656,2.531
12.5610,1.5382,0.0036,-0.2045,1.552
12.5780,0.3764,-0.3244,-1.0383,1.151
12.5980,-0.6953,0.0783,-0.7761,1.045
12.5980,-0.6953,0.0783,-0.7761,1.045
12.6200,-1.8024,1.6074,0.6267,2.495
12.6200,-1.8024,1.6074,0.6267,2.495
12.6350,-4.2582,1.5432,1.5045,4.773
12.6350,-4.2582,1.5432,1.5045,4.773
12.6430,-5.0424,1.2674,1.5559,5.427
12.6600,-8.3496,-0.8997,0.7738,8.433
12.6770,-10.0867,-1.9868,0.8682,10.317
12.6780,-10.6849,-2.3914,1.5773,11.062
12.6930,-11.6652,-3.2522,3.4352,12.588
12.7130,-9.7683,-6.0925,3.9821,12.182
12.7140,-9.7683,-6.0925,3.9821,12.182
12.7380,-4.7840,-6.6987,5.4982,9.899
12.7380,-4.7840,-6.6987,5.4982,9.899
12.7380,-4.7840,-6.6987,5.4982,9.899
12.7470,-2.8524,-6.2285,5.9831,9.096
12.7610,-0.7345,-4.8814,6.4496,8.122
12.7790,-0.5436,-2.4252,7.2292,7.644
12.7980,-2.0592,-0.8053,2.7060,3.494
12.7990,-2.0592,-0.8053,2.7060,3.494
12.8160,-2.1157,-1.1410,-2.4736,3.449
12.8160,-2.1157,-1.1410,-2.4736,3.449
12.8280,-3.0021,-3.8033,-5.8499,7.596
12.8450,-2.2081,-4.3066,-5.9393,7.661
12.8460,-1.9128,-4.2288,-5.9162,7.519
12.8620,-1.5892,-4.6530,-6.5169,8.164
12.8780,-1.2811,-6.7294,-3.9135,7.889
12.8790,-1.2811,-6.7294,-3.9135,7.889
12.8950,2.7372,-6.4825,5.0654,8.670
12.9150,3.3000,-4.0128,2.6151,5.816
12.9150,3.3000,-4.0128,2.6151,5.816
12.9340,3.0426,-1.9426,-3.2075,4.829
12.9340,3.0426,-1.9426,-3.2075,4.829
12.9440,3.0648,-0.6932,-4.4370,5.437
12.9600,2.6282,0.7974,-5.4721,6.123
12.9610,2.6282,0.7974,-5.4721,6.123
12.9770,2.9974,2.0275,-4.2031,5.546
12.9950,4.1294,2.6395,-4.5750,6.704
12.9950,4.1294,2.6395,-4.5750,6.704
13.0100,4.6985,3.1497,-5.0754,7.600
13.0100,4.6985,3.1497,-5.0754,7.600
13.0270,4.9098,3.8071,-5.2338,8.124
13.0450,5.3429,4.7290,-5.1392,8.793
13.0450,5.3429,4.7290,-5.1392,8.793
13.0620,5.9186,5.4984,-4.6624,9.327
13.0630,5.9186,5.4984,-4.6624,9.327
13.0790,6.4718,5.6149,-4.4337,9.647
13.0980,7.1765,5.0262,-4.4215,9.814
13.0980,7.1765,5.0262,-4.4215,9.814
13.1180,7.6638,4.8974,-4.4391,10.120
13.1180,7.6638,4.8974,-4.4391,10.120
13.1280,7.6567,5.4068,-4.5800,10.432
13.1450,6.8518,6.3287,-3.0017,9.798
13.1460,6.8518,6.3287,-3.0017,9.798
13.1620,5.5390,5.7323,-0.9219,8.024
13.1790,1.5137,1.9729,8.7907,9.136
13.1800,1.5137,1.9729,8.7907,9.136
13.1950,-14.7135,-12.1936,26.7507,32.875
13.2170,-23.9365,-20.4033,-0.6627,31.459
13.2170,-23.2288,-21.3517,0.4066,31.554
13.2370,-5.5444,-6.9676,2.4376,9.232
13.2370,-5.5444,-6.9676,2.4376,9.232
13.2450,-2.9054,-4.1537,1.8030,5.380
13.2620,1.8774,2.9700,2.9151,4.565
13.2790,3.5516,4.5026,-2.0163,6.079
13.2800,3.5516,4.5026,-2.0163,6.079
13.2960,3.7733,2.2606,-9.5187,10.486
13.2960,3.7733,2.2606,-9.5187,10.486
13.3160,3.9962,-2.4043,-9.4570,10.544
13.3170,3.9962,-2.4043,-9.4570,10.544
13.3340,-11.9772,-20.6189,15.6874,28.543
13.3450,-7.9228,-19.5132,4.0924,21.454
13.3620,13.1497,2.4446,-5.2417,14.365
13.3630,13.1497,2.4446,-5.2417,14.365
13.3790,12.8321,7.3308,-4.6550,15.494
13.3800,11.8827,8.2144,-4.3833,15.096
13.3960,9.8810,9.3546,-5.8425,14.808
13.4150,8.0041,8.3021,-6.9489,13.464
13.4160,8.0041,8.3021,-6.9489,13.464
13.4310,5.3595,6.1472,-6.4757,10.414
13.4320,5.3595,6.1472,-6.4757,10.414
13.4450,1.6170,-0.0541,-3.7956,4.126
13.4630,-4.1492,-9.9659,-1.6251,10.917
13.4630,-4.1492,-9.9659,-1.6251,10.917
13.4790,-7.6685,-12.5411,5.0260,15.535
13.4990,-1.9566,-1.7758,2.9686,3.974
13.5000,-1.9566,-1.7758,2.9686,3.974
13.5220,0.4650,4.2125,-4.1508,5.932
13.5230,0.4650,4.2125,-4.1508,5.932
13.5290,0.2883,3.5017,-4.9837,6.098
13.5460,0.0742,1.5800,-4.1342,4.426
13.5470,0.0742,1.5800,-4.1342,4.426
13.5620,0.3014,1.4571,-2.6858,3.070
13.5790,0.7068,2.3842,-1.5004,2.904
13.5800,0.7068,2.3842,-1.5004,2.904
13.5960,0.9307,3.3641,0.0682,3.491
13.6160,-0.5865,1.6423,0.7396,1.894
13.6160,-0.5865,1.6423,0.7396,1.894
13.6390,-0.5735,0.3609,0.9367,1.156
13.6400,-0.3274,0.2967,1.4877,1.552
13.6450,0.0794,0.3093,2.1486,2.172
13.6620,1.5499,0.6941,3.5227,3.911
13.6630,1.8611,0.9044,3.4578,4.030
13.6780,1.7388,1.5957,2.0411,3.120
13.6970,0.6681,1.9877,0.2604,2.113
13.6970,0.3311,2.1236,-0.0574,2.150
13.7120,-0.9868,2.0888,-0.3791,2.341
13.7280,-2.9479,1.1036,-0.1106,3.150
13.7290,-2.9479,1.1036,-0.1106,3.150
13.7460,-5.5145,0.1130,0.8853,5.586
13.7460,-5.5145,0.1130,0.8853,5.586
13.7620,-7.5277,-0.6142,2.3310,7.904
13.7790,-8.9991,-1.0915,2.7184,9.464
13.7800,-8.9991,-1.0915,2.7184,9.464
13.7960,-10.0465,-1.8641,2.6445,10.555
13.8160,-8.0259,-2.9625,2.8465,9.016
13.8170,-8.0259,-2.9625,2.8465,9.016
13.8340,-5.5911,-4.4637,3.0545,7.779
13.8350,-5.5911,-4.4637,3.0545,7.779
13.8460,-4.8706,-5.2207,3.0914,7.780
13.8630,-4.2324,-5.5053,3.1473,7.624
13.8630,-4.2324,-5.5053,3.1473,7.624
13.8790,-5.2432,-5.8814,3.4350,8.595
13.8950,-4.6203,-4.5250,4.9604,8.150
13.8960,-4.6203,-4.5250,4.9604,8.150
13.9160,-2.5755,-1.2810,4.1616,5.059
13.9170,-2.5755,-1.2810,4.1616,5.059
13.9350,-0.4998,-2.2169,1.1544,2.549
13.9360,-0.4998,-2.2169,1.1544,2.549
13.9460,-0.5188,-3.7781,-1.2516,4.014
13.9630,0.0483,-5.2706,-4.2235,6.754
13.9790,0.8779,-6.6708,-5.4178,8.638
13.9800,0.8779,-6.6708,-5.4178,8.638
13.9960,3.5493,-9.1825,-5.5811,11.317
14.0160,5.2647,-8.4585,-0.3038,9.968
14.0160,5.0301,-7.3331,1.9960,9.114
14.0380,1.9019,-3.3693,3.6943,5.349
14.0380,1.9019,-3.3693,3.6943,5.349
14.0450,1.2844,-2.4156,0.5942,2.800
14.0630,0.3941,-1.4351,-4.4632,4.705
14.0630,0.3941,-1.4351,-4.4632,4.705
14.0790,1.2792,-0.2126,-5.5130,5.663
14.0960,3.3352,1.0526,-4.6401,5.810
14.0970,3.5399,1.2820,-5.1317,6.365
14.1170,4.3941,1.9217,-4.7993,6.785
14.1170,4.3941,1.9217,-4.7993,6.785
14.1400,5.0267,2.6884,-4.9457,7.547
14.1400,5.1173,2.9437,-5.0958,7.799
14.1470,5.2187,3.2278,-5.2519,8.077
14.1630,5.7013,4.2076,-5.2179,8.800
14.1800,6.2542,5.5746,-4.8570,9.684
14.1810,6.2542,5.5746,-4.8570,9.684
14.1960,6.8844,6.3553,-4.3933,10.348
14.2160,7.5436,6.6544,-4.5288,11.032
14.2170,7.5436,6.6544,-4.5288,11.032
14.2390,7.6642,6.6912,-4.2048,11.009
14.2390,7.6642,6.6912,-4.2048,11.009
14.2450,7.5377,6.7921,-4.0635,10.930
14.2620,5.8580,7.0402,-3.1445,9.683
14.2630,5.8580,7.0402,-3.1445,9.683
14.2800,3.4874,6.6335,-0.6542,7.523
14.2960,0.3367,4.3997,2.6145,5.129
14.2970,0.3367,4.3997,2.6145,5.129
14.3170,-14.5309,-8.9571,19.7818,26.128
14.3180,-20.4619,-12.4785,15.8562,28.737
14.3400,-25.8342,-19.2395,0.4144,32.214
14.3400,-25.8342,-19.2395,0.4144,32.214
14.3460,-25.3797,-19.5093,2.4741,32.107
14.3630,-4.7214,-6.0677,2.3783,8.048
14.3800,3.0068,0.7616,2.8662,4.223
14.3810,4.1751,1.8569,2.7980,5.358
14.3970,7.2355,2.0885,0.2172,7.534
14.4170,9.2008,0.2449,-4.0741,10.065
14.4170,9.2008,0.2449,-4.0741,10.065
14.4400,9.4742,-1.8688,4.9235,10.839
14.4400,9.4742,-1.8688,4.9235,10.839
14.4460,7.7331,-4.7321,7.1742,11.561
14.4630,0.2329,-9.9257,-2.3390,10.200
14.4630,0.2329,-9.9257,-2.3390,10.200
14.4800,3.4173,-1.8248,-5.0740,6.384
14.4970,4.3871,2.2303,-6.0704,7.815
14.4970,4.3871,2.2303,-6.0704,7.815
14.5150,4.2679,3.8114,-8.2508,10.041
14.5300,4.0357,4.3024,-9.3191,11.029
14.5300,3.9804,4.3894,-9.3173,11.042
14.5450,3.2752,3.3133,-7.8012,9.086
14.5630,0.0790,-0.3546,-4.5175,4.532
14.5630,-1.0073,-1.9308,-2.9511,3.668
14.5800,-3.6504,-6.0861,0.6998,7.131
14.5800,-3.6504,-6.0861,0.6998,7.131
14.5960,-4.4494,-5.8553,4.1833,8.461
14.6160,0.0869,1.0489,1.8747,2.150
14.6170,0.0869,1.0489,1.8747,2.150
14.6350,0.8150,1.6849,-1.2395,2.245
14.6350,1.0831,1.7347,-1.8497,2.757
14.6460,1.8450,1.8295,-2.5610,3.648
14.6640,1.8723,2.0445,-2.5833,3.789
14.6640,1.8723,2.0445,-2.5833,3.789
14.6800,1.5744,2.4631,-2.4925,3.842
14.6960,1.2235,2.7876,-2.2391,3.779
14.6970,1.2235,2.7876,-2.2391,3.779
14.7170,0.7019,2.9090,-1.9955,3.597
14.7180,0.5063,2.8730,-1.9198,3.492
14.7360,-0.2162,2.4151,-1.7651,2.999
14.7460,-0.8324,1.9259,-1.7887,2.757
14.7620,-1.9513,0.9050,-0.5055,2.210
14.7630,-1.9513,0.9050,-0.5055,2.210
14.7790,-2.2055,-0.0665,1.8529,2.881
14.7790,-1.9756,-0.1203,2.6726,3.326
14.7970,-0.5537,0.3381,4.1056,4.157
14.8170,0.2329,0.1643,2.8553,2.870
14.8180,0.2329,0.1643,2.8553,2.870
14.8390,-0.6234,0.0024,0.4768,0.785
14.8400,-0.6234,0.0024,0.4768,0.785
14.8460,-0.7214,0.2768,0.2776,0.821
14.8640,-1.7414,0.9784,0.5605,2.075
14.8640,-1.7414,0.9784,0.5605,2.075
14.8810,-3.8462,0.6776,1.5512,4.202
14.8980,-6.9918,0.2576,1.5057,7.157
14.8980,-6.9918,0.2576,1.5057,7.157
14.9180,-9.3333,-0.3914,0.5126,9.356
14.9180,-9.7896,-0.6376,0.4083,9.819
14.9430,-11.2397,-2.3543,0.5873,11.499
14.9440,-11.4475,-2.9988,0.5797,11.848
14.9500,-11.5476,-3.7079,0.6460,12.145
14.9640,-10.9654,-5.8086,1.4804,12.497
14.9810,-8.3651,-6.4194,2.5713,10.853
14.9820,-7.4162,-6.4567,2.8600,10.241
14.9990,-4.9714,-6.6065,4.1558,9.254
15.0180,-1.5357,-6.3409,6.7657,9.399
15.0180,-1.5357,-6.3409,6.7657,9.399
15.0430,0.6159,-2.9992,3.4410,4.606
15.0430,0.6159,-2.9992,3.4410,4.606
15.0470,0.6138,-3.1299,1.9981,3.764
15.0690,0.1783,-4.0270,-2.9519,4.996
15.0690,-0.0495,-4.3359,-3.5348,5.594
15.0810,-0.0782,-4.8517,-3.9063,6.229
15.0980,1.9141,-5.1864,-3.5686,6.580
15.0990,1.9141,-5.1864,-3.5686,6.580
15.1180,5.8309,-5.1607,-1.9830,8.035
15.1190,5.8309,-5.1607,-1.9830,8.035
15.1470,1.6341,-3.3030,0.9701,3.811
15.1470,1.6341,-3.3030,0.9701,3.811
15.1650,0.8507,-2.5630,0.4372,2.736
15.1650,0.6313,-2.3083,0.0128,2.393
15.1820,0.4463,-1.0812,-2.1844,2.478
15.1820,0.4463,-1.0812,-2.1844,2.478
15.1990,1.3123,0.9595,-4.8496,5.115
15.2200,2.6238,2.0544,-4.9395,5.958
15.2200,2.6238,2.0544,-4.9395,5.958
15.2470,3.9786,3.6291,-4.9020,7.282
15.2470,3.9786,3.6291,-4.9020,7.282
15.2470,3.9786,3.6291,-4.9020,7.282
15.2650,4.6023,4.5479,-4.6810,7.986
15.2660,4.6023,4.5479,-4.6810,7.986
15.2820,5.0789,5.1093,-4.2802,8.380
15.3000,5.6333,5.4635,-3.9453,8.783
15.3000,5.8584,5.5151,-3.9478,8.962
15.3210,6.6732,4.9939,-3.9840,9.238
15.3220,6.6732,4.9939,-3.9840,9.238
15.3470,6.6531,3.7670,-4.3945,8.818
15.3480,6.6531,3.7670,-4.3945,8.818
15.3670,5.7192,4.7194,-4.0543,8.451
15.3680,5.3704,5.1727,-3.4916,8.233
15.3830,3.7053,5.9083,-0.9889,7.044
15.3830,3.7053,5.9083,-0.9889,7.044
15.4000,0.7165,5.8226,1.5016,6.056
15.4200,-7.6141,-0.1356,12.1742,14.360
15.4200,-7.6141,-0.1356,12.1742,14.360
15.4500,-12.7851,-15.1707,0.3191,19.842
15.4510,-12.7851,-15.1707,0.3191,19.842
15.4510,-12.7851,-15.1707,0.3191,19.842
15.4670,-7.7666,-13.2551,3.7888,15.823
15.4840,-2.9188,0.0846,2.7596,4.018
15.4840,-2.9188,0.0846,2.7596,4.018
15.5000,-0.7039,4.6284,-3.3758,5.772
15.5200,6.0063,4.4215,-5.2212,9.104
15.5240,7.6392,3.2251,-6.3455,10.441
15.5510,11.1668,-5.7847,4.9929,13.531
15.5520,11.1668,-5.7847,4.9929,13.531
15.5520,11.1668,-5.7847,4.9929,13.531
15.5670,-4.4494,-24.2719,13.5438,28.149
15.5670,-4.4494,-24.2719,13.5438,28.149
15.5840,-3.5952,-12.6382,-8.2757,15.529
15.6020,6.5075,4.1728,-4.0829,8.742
15.6030,7.5767,6.7351,-3.2903,10.658
15.6210,7.9611,9.6003,-5.0945,13.472
15.6220,7.7133,9.8737,-6.3542,14.049
15.6500,6.0347,9.3055,-7.6572,13.477
15.6500,5.4387,8.8135,-7.5085,12.792
15.6650,2.5405,6.3568,-6.3461,9.335
15.6660,2.5405,6.3568,-6.3461,9.335
15.6820,-2.2714,0.9045,-2.3821,3.413
15.6830,-2.2714,0.9045,-2.3821,3.413
15.6970,-5.1248,-6.8265,-1.0495,8.600
15.7160,-6.0533,-11.9665,5.6413,14.549
15.7170,-6.0533,-11.9665,5.6413,14.549
15.7310,-1.8629,-4.6718,3.6645,6.223
15.7490,2.1816,2.9501,-2.7360,4.577
15.7490,2.1816,2.9501,-2.7360,4.577
15.7650,2.3719,1.8776,-4.0935,5.090
15.7650,2.3719,1.8776,-4.0935,5.090
15.7810,1.7350,1.5533,-2.0638,3.112
15.7980,1.2789,1.7358,-1.3558,2.547
15.7980,1.2789,1.7358,-1.3558,2.547
15.8160,0.2482,1.6977,-1.6138,2.356
15.8170,0.2482,1.6977,-1.6138,2.356
15.8310,-0.5062,1.3717,-0.6802,1.613
15.8480,-0.9652,1.4204,-0.6285,1.829
15.8480,-0.9652,1.4204,-0.6285,1.829
15.8650,-0.7994,1.7002,-1.2584,2.261
15.8810,-0.2024,1.4778,-1.0305,1.813
15.8820,0.0866,1.2265,-0.5941,1.366
15.8980,1.3518,0.6100,1.4924,2.104
15.9180,2.6678,0.0941,3.4825,4.388
15.9180,2.6678,0.0941,3.4825,4.388
15.9320,2.5860,0.2767,2.8180,3.835
15.9320,2.5860,0.2767,2.8180,3.835
15.9480,1.7580,0.8981,1.6771,2.590
15.9650,-0.3163,1.7586,1.0492,2.072
15.9650,-0.3163,1.7586,1.0492,2.072
15.9810,-3.1732,1.2475,1.5036,3.726
15.9980,-6.6774,0.2594,2.0237,6.982
15.9990,-6.6774,0.2594,2.0237,6.982
16.0150,-8.3133,0.0770,1.9218,8.533
16.0150,-8.3133,0.0770,1.9218,8.533
16.0330,-9.7134,-0.2060,1.4012,9.816
16.0540,-10.4000,-0.8982,2.8292,10.815
16.0550,-9.7511,-1.3482,3.0740,10.313
16.0550,-9.7511,-1.3482,3.0740,10.313
16.0650,-7.8104,-1.8824,3.6955,8.843
16.0820,-5.9273,-3.5431,4.0398,8.000
16.0990,-5.6219,-6.8462,3.9559,9.702
16.0990,-5.6219,-6.8462,3.9559,9.702
16.1190,-3.7378,-6.3122,5.7182,9.301
16.1190,-3.7378,-6.3122,5.7182,9.301
16.1390,-2.4985,-2.5837,5.2383,6.353
16.1390,-2.4985,-2.5837,5.2383,6.353
16.1490,-3.0923,-1.6689,3.1870,4.744
16.1660,-4.7146,-3.4796,-0.3391,5.869
16.1830,-4.6316,-5.1108,-3.5738,7.768
16.1840,-4.6316,-5.1108,-3.5738,7.768
16.2010,-2.9535,-6.6786,-5.0431,8.875
16.2190,-0.0964,-9.9944,-6.0817,11.700
16.2200,-0.0964,-9.9944,-6.0817,11.700
16.2430,7.7944,-12.5657,-0.5923,14.799
16.2430,7.7944,-12.5657,-0.5923,14.799
16.2440,7.7944,-12.5657,-0.5923,14.799
16.2530,8.3858,-8.3602,5.4190,13.022
16.2650,5.3203,-5.0090,7.0689,10.167
16.2820,3.1998,-2.0235,-0.4445,3.812
16.2990,2.9603,-1.3378,-3.1465,4.523
16.2990,2.7346,-0.9856,-4.0938,5.021
16.3170,2.3207,0.4624,-5.9889,6.439
16.3170,2.3207,0.4624,-5.9889,6.439
16.3360,2.7847,2.4987,-5.9443,7.024
16.3370,2.7847,2.4987,-5.9443,7.024
16.3590,4.0047,4.2715,-5.3451,7.928
16.3590,4.0047,4.2715,-5.3451,7.928
16.3680,4.3430,4.3947,-5.4497,8.239
16.3830,5.6585,4.7179,-5.7058,9.318
16.4000,6.3210,4.9664,-5.6007,9.797
16.4010,6.3210,4.9664,-5.6007,9.797
16.4200,7.0199,5.8206,-4.6684,10.245
16.4210,7.0199,5.8206,-4.6684,10.245
16.4470,8.4097,6.4712,-4.8875,11.683
16.4470,8.4097,6.4712,-4.8875,11.683
16.4670,8.2362,5.6799,-5.0301,11.198
16.4680,8.2362,5.6799,-5.0301,11.198
16.4830,7.3277,5.5963,-5.5357,10.754
16.5000,5.8339,6.0114,-5.2650,9.894
16.5010,5.8339,6.0114,-5.2650,9.894
16.5180,3.2268,7.0270,-3.9652,8.690
16.5180,3.2268,7.0270,-3.9652,8.690
16.5370,0.1219,4.0273,-0.0904,4.030
16.5370,0.1219,4.0273,-0.0904,4.030
16.5610,-23.6015,-18.4930,22.1588,37.283
16.5620,-23.6015,-18.4930,22.1588,37.283
16.5690,-27.5640,-21.9402,12.4052,37.350
16.5840,-31.2798,-26.6668,3.5367,41.256
16.6010,-4.0733,-7.5412,-0.0569,8.571
16.6210,6.8007,1.3677,2.9853,7.552
16.6210,6.8007,1.3677,2.9853,7.552
16.6490,10.1953,5.7406,-1.5133,11.798
16.6490,10.1953,5.7406,-1.5133,11.798
16.6490,10.1953,5.7406,-1.5133,11.798
16.6660,9.3960,5.1488,-6.7605,12.669
16.6670,9.3960,5.1488,-6.7605,12.669
16.6840,7.2339,2.0754,-2.2681,7.860
16.7000,-2.9437,-13.1184,6.8034,15.068
16.7010,-6.3317,-18.0278,6.2527,20.104
16.7170,-7.3647,-20.0554,-0.8996,21.384
16.7180,-7.3647,-20.0554,-0.8996,21.384
16.7380,5.8286,0.0799,-4.4863,7.356
16.7390,6.8512,2.1353,-4.2459,8.338
16.7550,7.1653,4.9973,-4.1448,9.669
16.7690,6.9764,5.8561,-5.8878,10.846
16.7690,6.9764,5.8561,-5.8878,10.846
16.7850,7.3528,6.1537,-7.0594,11.907
16.8020,5.6816,4.2539,-5.5809,9.029
16.8020,5.6816,4.2539,-5.5809,9.029
16.8220,1.9345,-1.7405,-4.6836,5.358
16.8240,1.9345,-1.7405,-4.6836,5.358
16.8450,-3.8187,-7.2550,3.5359,8.929
16.8460,-3.8187,-7.2550,3.5359,8.929
16.8530,-4.4133,-6.5365,4.4746,9.068
16.8660,-3.0502,-1.5264,3.0372,4.567
16.8880,-1.5868,2.6673,-2.7598,4.153
16.8880,-1.5868,2.6673,-2.7598,4.153
16.9010,-1.4122,2.0337,-3.6121,4.379
16.9220,-0.4402,1.4018,-3.4003,3.704
16.9230,-0.4402,1.4018,-3.4003,3.704
16.9450,0.6915,2.3970,-1.1008,2.727
16.9450,0.6915,2.3970,-1.1008,2.727
16.9510,0.8908,2.6983,-0.6515,2.915
16.9670,1.0618,3.1089,0.0723,3.286
16.9850,-0.5467,1.5276,-0.1091,1.626
16.9860,-0.5467,1.5276,-0.1091,1.626
17.0010,-1.3277,0.5264,0.2663,1.453
17.0020,-1.3277,0.5264,0.2663,1.453
17.0190,-0.5663,0.9775,1.7851,2.112
17.0410,0.3900,1.7012,2.7021,3.217
17.0420,0.3539,1.5505,2.7954,3.216
17.0670,-1.3928,0.2649,1.4753,2.046
17.0670,-1.3928,0.2649,1.4753,2.046
17.0680,-1.3928,0.2649,1.4753,2.046
17.0860,-2.1610,0.6238,0.2880,2.268
17.0860,-2.1610,0.6238,0.2880,2.268
17.1030,-2.4832,1.6123,0.7797,3.062
17.1240,-3.6186,2.1357,2.0733,4.686
17.1250,-4.0973,2.0323,2.3634,5.148
17.1480,-6.1507,1.3229,2.7858,6.881
17.1480,-6.5994,1.1672,2.4738,7.144
17.1690,-7.7259,0.7008,0.7747,7.796
17.1690,-7.7259,0.7008,0.7747,7.796
17.1850,-7.9500,0.5176,-0.1006,7.967
17.1860,-7.9500,0.5176,-0.1006,7.967
17.2020,-7.4274,-0.1073,0.5355,7.447
17.2220,-6.3440,-3.1079,1.6679,7.259
17.2230,-6.3440,-3.1079,1.6679,7.259
17.2480,-4.6431,-5.9908,2.8626,8.102
17.2480,-4.1870,-6.5594,2.9389,8.318
17.2490,-4.1870,-6.5594,2.9389,8.318
17.2690,-1.4822,-7.9924,4.4509,9.268
17.2690,-1.4822,-7.9924,4.4509,9.268
17.2860,0.5990,-7.3560,7.0292,10.192
17.3020,-2.0737,-4.7207,6.4646,8.269
17.3030,-2.0737,-4.7207,6.4646,8.269
17.3190,-2.4278,-2.8026,2.5159,4.481
17.3390,-1.5804,-3.9654,-2.3713,4.883
17.3400,-1.2865,-4.5707,-3.3328,5.801
17.3620,0.3440,-6.2387,-5.4505,8.291
17.3630,0.3440,-6.2387,-5.4505,8.291
17.3670,1.1816,-6.4550,-5.7297,8.712
17.3850,6.2248,-7.2151,-4.3318,10.468
17.3860,6.2248,-7.2151,-4.3318,10.468
17.4030,8.0153,-6.1151,4.0519,10.865
17.4230,1.5701,-4.0302,2.8369,5.173
17.4240,1.5701,-4.0302,2.8369,5.173
17.4470,-0.6460,-1.8559,-3.3402,3.875
17.4480,-0.6460,-1.8559,-3.3402,3.875
17.4520,-0.9121,-1.3874,-3.9689,4.302
17.4690,-0.3363,0.5640,-5.0848,5.127
17.4860,1.7988,2.1618,-5.1363,5.856
17.4870,1.7988,2.1618,-5.1363,5.856
17.5020,3.1533,3.0916,-5.4196,6.991
17.5020,3.1533,3.0916,-5.4196,6.991
17.5200,3.8870,3.4560,-5.1052,7.288
17.5390,4.6649,3.9791,-5.0774,7.961
17.5390,4.6649,3.9791,-5.0774,7.961
17.5640,5.5817,4.9489,-4.4388,8.680
17.5640,5.5817,4.9489,-4.4388,8.680
17.5690,5.7569,5.1655,-4.3234,8.861
17.5850,6.2034,5.7486,-4.5504,9.604
17.5860,6.3988,5.9551,-4.6418,9.897
17.6030,6.9808,6.5167,-5.2177,10.882
17.6230,6.7363,6.4259,-5.4107,10.768
17.6240,6.7363,6.4259,-5.4107,10.768
17.6510,6.2380,6.6776,-4.0301,9.987
17.6520,5.7108,6.8016,-3.8695,9.687
17.6520,5.7108,6.8016,-3.8695,9.687
17.6690,3.7109,7.4318,-2.5303,8.684
17.6700,3.7109,7.4318,-2.5303,8.684
17.6870,0.3080,6.8235,1.8163,7.068
17.7030,-5.6537,0.3337,16.0674,17.036
17.7040,-5.6537,0.3337,16.0674,17.036
17.7190,-25.1835,-18.5039,5.8924,31.801
17.7390,-26.3334,-27.8562,2.9774,38.448
17.7400,-26.3334,-27.8562,2.9774,38.448
17.7600,1.6395,-6.1122,2.7262,6.890
17.7600,1.6395,-6.1122,2.7262,6.890
17.7680,5.8774,0.3479,2.7982,6.519
17.7850,7.7633,6.1403,0.5758,9.915
17.8020,9.0402,8.0140,-4.0585,12.744
17.8030,9.0402,8.0140,-4.0585,12.744
17.8190,9.9604,6.5285,-6.9381,13.783
17.8200,10.3018,5.7490,-6.3436,13.395
17.8390,9.1688,-1.9597,-1.0438,9.434
17.8410,5.6013,-7.8444,6.5818,11.672
17.8620,-8.5721,-22.6835,-0.7295,24.260
17.8620,-8.5721,-22.6835,-0.7295,24.260
17.8710,-5.1861,-15.7430,-4.4949,17.174
17.8850,5.1338,0.9979,-3.4892,6.287
17.9020,7.3094,5.9849,-3.8175,10.189
17.9190,6.1181,6.6303,-8.2214,12.206
17.9190,6.1181,6.6303,-8.2214,12.206
17.9400,5.0009,5.8715,-9.4000,12.159
17.9410,4.3501,5.4538,-9.2230,11.564
17.9680,-0.4114,0.1968,-6.2103,6.227
17.9680,-0.4114,0.1968,-6.2103,6.227
17.9860,-5.2768,-5.7019,0.3893,7.779
17.9870,-5.2768,-5.7019,0.3893,7.779
18.0030,-6.6509,-5.4547,5.8182,10.385
18.0040,-5.9579,-4.3453,6.1749,9.618
18.0210,-1.5688,-0.0972,3.7466,4.063
18.0400,-0.2817,0.8729,-1.4146,1.686
18.0400,-0.2817,0.8729,-1.4146,1.686
18.0640,-0.2541,1.0515,-1.5509,1.891
18.0640,-0.2541,1.0515,-1.5509,1.891
18.0680,-0.0340,1.2287,-1.2913,1.783
18.0860,1.3138,2.1874,-0.9462,2.721
18.0860,1.3138,2.1874,-0.9462,2.721
18.1020,2.1941,2.9265,-1.0168,3.796
18.1210,2.7083,3.3233,-0.7512,4.352
18.1210,2.7083,3.3233,-0.7512,4.352
18.1400,1.0726,1.0936,-0.8270,1.741
18.1410,1.0726,1.0936,-0.8270,1.741
18.1650,-1.4466,-1.1874,2.1570,2.856
18.1650,-1.4466,-1.1874,2.1570,2.856
18.1710,-1.4570,-0.7310,2.8891,3.317
18.1870,-1.1880,0.7852,3.7554,4.016
18.2030,-1.9016,1.0249,2.9848,3.684
18.2040,-1.9016,1.0249,2.9848,3.684
18.2200,-2.1296,1.3018,1.1110,2.732
18.2400,-1.5228,1.3320,-0.1570,2.029
18.2410,-1.5228,1.3320,-0.1570,2.029
18.2630,-1.6373,1.5424,0.5578,2.318
18.2640,-1.6373,1.5424,0.5578,2.318
18.2690,-1.9721,1.4699,0.9521,2.637
18.2860,-3.6666,1.3212,1.9297,4.349
18.3030,-5.9465,0.6516,1.6478,6.205
18.3040,-5.9465,0.6516,1.6478,6.205
18.3200,-7.2143,0.0184,0.5123,7.233
18.3410,-7.5604,-0.4963,1.3779,7.701
18.3410,-7.5604,-0.4963,1.3779,7.701
18.3680,-5.5929,-2.3144,2.4909,6.545
18.3680,-5.5929,-2.3144,2.4909,6.545
18.3680,-5.5929,-2.3144,2.4909,6.545
18.3880,-5.1931,-4.3039,3.3331,7.523
18.3880,-5.1931,-4.3039,3.3331,7.523
18.4040,-4.5423,-5.8345,4.5219,8.667
18.4210,-3.5537,-5.8352,5.9011,9.028
18.4210,-3.1587,-5.2551,6.6194,9.023
18.4410,-2.8764,-2.2771,7.5299,8.376
18.4680,-2.3181,-0.4186,-0.6532,2.444
18.4680,-2.3181,-0.4186,-0.6532,2.444
18.4690,-2.3181,-0.4186,-0.6532,2.444
18.4860,-2.7243,-3.6266,-4.6218,6.476
18.4860,-2.7243,-3.6266,-4.6218,6.476
18.5030,-2.4375,-4.7351,-5.9219,7.964
18.5200,-1.0629,-7.5061,-6.1621,9.769
18.5210,-1.0629,-7.5061,-6.1621,9.769
18.5410,3.1979,-11.7974,-1.5415,12.320
18.5410,3.1979,-11.7974,-1.5415,12.320
18.5670,1.7521,-5.3801,1.9430,5.983
18.5670,1.7521,-5.3801,1.9430,5.983
18.5870,2.3875,-1.8571,-0.5531,3.075
18.5880,2.4401,-1.2385,-1.2208,2.996
18.6040,1.6672,0.0272,-3.8578,4.203
18.6040,1.6672,0.0272,-3.8578,4.203
18.6200,1.1076,1.7567,-5.5394,5.916
18.6410,3.0034,3.5338,-4.9488,6.782
18.6410,3.0034,3.5338,-4.9488,6.782
18.6630,4.4403,4.0069,-5.0276,7.813
18.6630,4.4403,4.0069,-5.0276,7.813
18.6700,4.7043,4.0492,-4.9595,7.945
18.6870,5.6617,4.4153,-4.6553,8.557
18.6870,5.6617,4.4153,-4.6553,8.557
18.7040,5.7124,4.7879,-4.8436,8.889
18.7220,6.0625,5.5893,-4.1364,9.225
18.7220,6.0625,5.5893,-4.1364,9.225
18.7410,7.1815,6.4270,-4.3129,10.558
18.7500,7.1815,6.4270,-4.3129,10.558
18.7710,7.7918,5.8912,-4.2706,10.661
18.7710,7.7918,5.8912,-4.2706,10.661
18.7880,7.0962,6.3337,-3.8780,10.272
18.7880,7.0962,6.3337,-3.8780,10.272
18.8040,5.3275,6.8718,-3.7688,9.477
18.8050,5.3275,6.8718,-3.7688,9.477
18.8210,2.1843,5.6238,-3.6880,7.071
18.8410,-2.9867,-1.9091,8.7037,9.398
18.8420,-2.9867,-1.9091,8.7037,9.398
18.8660,-29.3677,-25.4055,8.5146,39.754
18.8670,-29.3677,-25.4055,8.5146,39.754
18.8710,-30.9647,-27.2717,5.8592,41.676
18.8880,-20.5612,-16.6230,1.0019,26.459
18.9050,2.1913,-0.4826,3.6140,4.254
18.9050,2.1913,-0.4826,3.6140,4.254
18.9210,5.4700,4.1942,4.4144,8.185
18.9420,6.7250,6.8889,-2.6863,9.995
18.9420,6.4079,6.3563,-6.7121,11.248
18.9720,5.6979,0.9889,-8.3338,10.144
18.9720,5.6979,0.9889,-8.3338,10.144
18.9870,0.5611,-9.5025,8.7069,12.900
18.9890,0.5611,-9.5025,8.7069,12.900
18.9890,0.5611,-9.5025,8.7069,12.900
19.0030,-3.8613,-20.3148,10.4122,23.152
19.0210,10.2577,-2.3472,-8.7174,13.665
19.0210,10.2577,-2.3472,-8.7174,13.665
19.0400,8.1845,4.9005,-6.3030,11.434
19.0590,6.4057,6.2560,-6.9224,11.318
19.0600,6.4057,6.2560,-6.9224,11.318
19.0700,6.1048,6.0729,-7.2009,11.225
19.0880,3.8303,3.5699,-7.3022,8.985
19.0880,3.8303,3.5699,-7.3022,8.985
19.1040,-0.7130,-1.3628,-5.8414,6.041
19.1040,-0.7130,-1.3628,-5.8414,6.041
19.1220,-6.0811,-7.7151,0.5963,9.842
19.1410,-7.3492,-4.9876,5.3798,10.384
19.1420,-7.3492,-4.9876,5.3798,10.384
19.1650,-3.6429,2.4157,-2.2225,4.904
19.1650,-3.6429,2.4157,-2.2225,4.904
19.1700,-3.3755,2.5070,-3.5960,5.533
19.1880,-1.5123,0.8434,-4.2065,4.549
19.1880,-1.5123,0.8434,-4.2065,4.549
19.2050,-0.0392,0.5733,-1.5264,1.631
19.2220,1.8024,1.6568,0.4511,2.489
19.2220,1.8024,1.6568,0.4511,2.489
19.2420,2.9930,2.8502,0.6076,4.177
19.2430,2.9930,2.8502,0.6076,4.177
19.2680,3.8919,2.9194,-0.1614,4.868
19.2690,3.8919,2.9194,-0.1614,4.868
19.2890,2.3281,0.8425,-0.5446,2.535
19.2900,2.3281,0.8425,-0.5446,2.535
19.3050,0.7320,0.9470,0.3767,1.255
19.3060,0.7320,0.9470,0.3767,1.255
19.3210,-0.2580,0.8464,1.8764,2.075
19.3420,-0.4055,0.7763,2.0107,2.193
19.3430,-0.4055,0.7763,2.0107,2.193
19.3720,-0.4140,1.2497,0.0120,1.317
19.3730,-0.4140,1.2497,0.0120,1.317
19.3730,-0.4140,1.2497,0.0120,1.317
19.3880,-1.2321,1.7655,-0.0581,2.154
19.4050,-3.6727,0.9707,0.6911,3.861
19.4050,-3.6727,0.9707,0.6911,3.861
19.4220,-5.2251,0.9836,2.0496,5.698
19.4420,-7.2017,1.0587,3.9491,8.281
19.4430,-7.7004,0.8272,3.8502,8.649
19.4720,-9.0324,0.2757,0.3287,9.043
19.4730,-9.0324,0.2757,0.3287,9.043
19.4730,-9.0324,0.2757,0.3287,9.043
19.4890,-9.4117,0.2325,1.1724,9.487
19.4900,-9.4117,0.2325,1.1724,9.487
19.5060,-9.5762,-2.3059,0.9494,9.896
19.5220,-8.6531,-4.9439,1.5670,10.088
19.5230,-8.6531,-4.9439,1.5670,10.088
19.5420,-6.4598,-6.0151,4.0558,9.714
19.5430,-5.8829,-6.1026,4.7967,9.740
19.5710,-2.5271,-4.5207,6.7397,8.500
19.5720,-2.0737,-3.9122,6.0437,7.492
19.5890,-1.7470,-2.4351,3.5354,4.635
19.5890,-1.7470,-2.4351,3.5354,4.635
19.6060,-1.6663,-3.2000,0.2711,3.618
19.6060,-1.7989,-3.6349,-1.0097,4.179
19.6230,-1.8764,-4.9133,-4.2289,6.749
19.6430,-0.2014,-6.7434,-5.4709,8.686
19.6440,-0.2014,-6.7434,-5.4709,8.686
19.6740,5.9003,-9.8327,-4.0878,12.174
19.6750,6.4749,-9.4470,-2.0800,11.640
19.6750,6.4749,-9.4470,-2.0800,11.640
19.6890,3.5144,-4.9679,3.1503,6.852
19.7060,1.2042,-1.9102,3.4739,4.143
19.7070,1.2042,-1.9102,3.4739,4.143
19.7220,0.1651,-0.8377,-1.6594,1.866
19.7430,-1.0558,-0.5677,-6.0835,6.201
19.7440,-1.0558,-0.5677,-6.0835,6.201
19.7720,3.5150,1.8073,-4.6127,6.074
19.7730,3.5150,1.8073,-4.6127,6.074
19.7730,3.5150,1.8073,-4.6127,6.074
19.7890,4.6586,2.2929,-5.0013,7.209
19.7900,4.7716,2.4070,-4.9068,7.255
19.8060,5.2071,3.0005,-4.5284,7.525
19.8230,5.8792,3.9455,-5.1406,8.750
19.8230,5.8792,3.9455,-5.1406,8.750
19.8400,6.1720,4.6024,-5.1014,9.236
19.8590,6.7234,5.3266,-4.2285,9.563
19.8600,6.7234,5.3266,-4.2285,9.563
19.8880,7.4519,5.6371,-4.0935,10.201
19.8880,7.4519,5.6371,-4.0935,10.201
19.8890,7.4519,5.6371,-4.0935,10.201
19.9070,7.8762,6.3973,-4.1269,10.954
19.9070,7.8762,6.3973,-4.1269,10.954
19.9230,7.5508,7.1025,-3.7885,11.037
19.9450,4.7297,7.0686,-2.9984,9.018
19.9460,4.7297,7.0686,-2.9984,9.018
19.9770,-8.2839,-8.0045,20.0996,23.167
19.9770,-8.2839,-8.0045,20.0996,23.167
19.9780,-8.2839,-8.0045,20.0996,23.167
19.9890,-23.0923,-17.3550,20.3571,35.339
19.9900,-23.0923,-17.3550,20.3571,35.339
20.0060,-30.0735,-23.3783,4.8381,38.397
20.0220,-10.3207,-8.5584,0.6313,13.422
20.0230,-10.3207,-8.5584,0.6313,13.422
20.0440,5.8732,4.0277,3.9667,8.152
20.0450,5.8732,4.0277,3.9667,8.152
20.0640,9.0531,6.7224,1.6018,11.389
20.0640,9.0531,6.7224,1.6018,11.389
20.0750,8.2501,5.0170,-4.5393,10.670
20.0880,7.9313,2.4444,-9.0984,12.315
20.1060,5.9877,-2.2420,-2.9068,7.023
20.1220,-7.1889,-19.5041,6.9856,21.929
20.1230,-7.1889,-19.5041,6.9856,21.929
20.1390,-3.9903,-13.4793,-2.2806,14.241
20.1400,0.0915,-7.6409,-3.4294,8.376
20.1590,7.6652,1.3114,-6.5251,10.151
20.1800,6.7800,5.6078,-5.9416,10.617
20.1800,6.7800,5.6078,-5.9416,10.617
20.1890,6.8524,6.2221,-7.2654,11.767
20.2060,6.9558,5.9803,-7.2903,11.717
20.2060,6.9558,5.9803,-7.2903,11.717
20.2230,4.4406,3.5098,-7.0394,9.033
20.2420,-0.2854,-2.4147,-6.0040,6.478
20.2430,-0.2854,-2.4147,-6.0040,6.478
20.2690,-6.5535,-7.2858,3.5836,10.434
20.2690,-6.5535,-7.2858,3.5836,10.434
20.2700,-6.5535,-7.2858,3.5836,10.434
20.2880,-5.1562,-1.4262,5.0699,7.370
20.2880,-5.1562,-1.4262,5.0699,7.370
20.3050,-2.7004,2.6575,-1.7644,4.179
20.3210,-1.6218,1.2339,-4.4642,4.907
20.3210,-1.1893,0.9604,-4.4228,4.680
20.3410,0.4542,0.5699,-2.9397,3.029
20.3420,0.4542,0.5699,-2.9397,3.029
20.3570,1.9130,1.2057,-1.0654,2.500
20.3740,2.6906,2.1867,-0.2319,3.475
20.3740,2.6906,2.1867,-0.2319,3.475
20.3870,3.2335,2.8234,0.3043,4.303
20.4040,2.4892,1.9022,-0.5534,3.181
20.4050,2.4892,1.9022,-0.5534,3.181
20.4200,1.3174,0.5979,-0.9843,1.750
20.4200,1.3174,0.5979,-0.9843,1.750
20.4370,0.8410,0.7429,-0.2074,1.141
20.4570,0.8256,1.1078,2.9386,3.247
20.4580,0.8256,1.1078,2.9386,3.247
20.4710,0.7474,0.9670,3.1570,3.385
20.4710,0.6353,0.9154,2.8663,3.075
20.4870,0.1085,0.8806,1.0402,1.367
20.5040,-0.5871,0.8965,-0.4357,1.157
20.5050,-0.5871,0.8965,-0.4357,1.157
20.5210,-2.1341,0.8119,0.0604,2.284
20.5380,-4.0717,0.9632,1.9755,4.627
20.5380,-4.0717,0.9632,1.9755,4.627
20.5560,-7.4716,-0.2024,3.9883,8.472
20.5580,-8.3572,-0.6246,4.0252,9.297
20.5710,-9.7963,-0.9522,3.2804,10.375
20.5880,-10.8029,-0.3089,0.9927,10.853
20.5880,-10.8909,-0.0129,0.4307,10.899
20.6050,-11.1483,0.4161,0.2975,11.160
20.6210,-10.3071,-1.1119,0.9234,10.408
20.6210,-10.3071,-1.1119,0.9234,10.408
20.6380,-8.9949,-3.5038,1.4562,9.762
20.6380,-8.9949,-3.5038,1.4562,9.762
20.6560,-6.5305,-5.5254,2.8570,9.019
20.6710,-4.4566,-6.1835,4.7895,9.002
20.6710,-4.4566,-6.1835,4.7895,9.002
20.6880,-1.6518,-6.0743,6.2019,8.837
20.6880,-0.5430,-5.6403,6.1434,8.358
20.7050,2.0978,-3.9926,5.5909,7.183
20.7220,2.3566,-3.4915,3.7160,5.617
20.7230,2.3566,-3.4915,3.7160,5.617
20.7390,0.3505,-4.6576,-1.8049,5.007
20.7590,-0.1293,-7.1272,-5.3079,8.888
20.7590,-0.1293,-7.1272,-5.3079,8.888
20.7760,2.8873,-9.5882,-5.9546,11.650
20.7760,2.8873,-9.5882,-5.9546,11.650
20.7880,5.9915,-10.5768,-4.0297,12.806
20.8040,5.0138,-6.1883,2.4366,8.329
20.8050,5.0138,-6.1883,2.4366,8.329
20.8220,2.2456,-2.5879,2.4882,4.235
20.8380,1.0053,-0.4620,-1.6661,2.000
20.8380,1.0053,-0.4620,-1.6661,2.000
20.8570,-0.4848,0.0366,-4.9540,4.978
20.8570,-0.4848,0.0366,-4.9540,4.978
20.8740,-0.4357,0.8252,-4.2475,4.349
20.8880,1.4355,1.9112,-4.5285,5.121
20.8890,1.4355,1.9112,-4.5285,5.121
20.9050,2.7818,2.6894,-5.2176,6.496
20.9220,3.2678,3.1865,-5.2979,6.993
20.9230,3.4807,3.4408,-5.3805,7.273
20.9400,4.2607,4.2033,-5.1640,7.905
20.9400,4.2607,4.2033,-5.1640,7.905
20.9590,5.0171,5.3699,-4.8475,8.804
20.9780,5.6189,6.5061,-4.9912,9.941
20.9780,5.6189,6.5061,-4.9912,9.941
20.9880,5.8217,6.7120,-5.2179,10.304
21.0050,5.9904,6.2519,-5.2625,10.132
21.0050,6.1013,6.1068,-5.1949,10.075
21.0220,6.3971,5.8583,-4.7786,9.903
21.0390,6.5306,5.9319,-3.8059,9.608
21.0390,6.5306,5.9319,-3.8059,9.608
21.0590,5.1655,6.9195,-3.8565,9.457
21.0600,5.1655,6.9195,-3.8565,9.457
21.0780,2.5065,5.5775,-2.9940,6.808
21.0860,1.3245,4.6290,-0.6647,4.860
21.0880,-0.2530,3.3318,4.0356,5.239
21.1060,-15.3028,-7.9660,33.4865,37.669
21.1070,-20.0373,-13.5706,33.6111,41.417
21.1220,-17.7308,-22.2830,1.8495,28.537
21.1400,-6.0516,-18.7326,4.1255,20.113
21.1410,-6.0516,-18.7326,4.1255,20.113
21.1600,0.9786,-0.2925,3.5889,3.731
21.1610,0.9786,-0.2925,3.5889,3.731
21.1880,4.4969,4.3555,-2.1277,6.612
21.1890,4.6056,3.6842,-5.5454,8.095
21.2070,6.3819,-0.0915,-6.8412,9.356
21.2070,7.3751,-1.8154,-5.1024,9.150
21.2250,7.5392,-6.8532,1.4363,10.289
21.2250,7.5392,-6.8532,1.4363,10.289
21.2410,-3.3145,-5.8738,-8.3389,10.725
21.2600,4.2605,4.0197,-5.5320,8.057
21.2610,4.2605,4.0197,-5.5320,8.057
21.2910,6.5278,4.9978,-6.7989,10.668
21.2910,6.5278,4.9978,-6.7989,10.668
21.2910,6.5278,4.9978,-6.7989,10.668
21.3070,5.9979,4.5144,-6.9117,10.204
21.3080,5.9979,4.5144,-6.9117,10.204
21.3240,3.3911,1.6476,-6.8047,7.779
21.3420,-0.5186,-3.6611,-4.8696,6.114
21.3420,-1.6005,-5.6355,-3.9513,7.066
21.3610,-4.6142,-9.3405,-0.3893,10.425
21.3610,-4.6142,-9.3405,-0.3893,10.425
21.3910,-1.5277,1.6801,1.8908,2.955
21.3920,-1.5277,1.6801,1.8908,2.955
21.3920,-1.5277,1.6801,1.8908,2.955
21.4070,0.4429,3.3464,-1.7991,3.825
21.4230,0.1660,2.0648,-3.0946,3.724
21.4240,0.1375,1.7650,-2.9213,3.416
21.4410,0.2465,1.5674,-2.1958,2.709
21.4600,0.2182,1.8535,-1.2257,2.233
21.4600,0.2182,1.8535,-1.2257,2.233
21.4870,-0.0265,2.7328,-1.3835,3.063
21.4870,-0.0265,2.7328,-1.3835,3.063
21.4870,-0.0265,2.7328,-1.3835,3.063
21.4950,-0.1001,2.7985,-1.2764,3.077
21.5070,-0.3570,2.8397,-0.5758,2.919
21.5240,-0.9174,2.5725,0.3178,2.750
21.5410,-1.5781,0.5999,1.7492,2.431
21.5420,-1.5781,0.5999,1.7492,2.431
21.5620,-0.4199,0.5057,2.9333,3.006
21.5620,-0.4199,0.5057,2.9333,3.006
21.5920,-2.4643,0.1383,2.3075,3.379
21.5930,-2.4643,0.1383,2.3075,3.379
21.5930,-2.4643,0.1383,2.3075,3.379
21.6090,-2.8518,1.0892,2.9391,4.238
21.6250,-2.9558,1.9459,3.0912,4.699
21.6260,-3.0095,1.9339,3.0951,4.730
21.6410,-3.5305,1.5155,3.1877,4.992
21.6600,-5.1408,1.1897,0.3959,5.292
21.6610,-5.1408,1.1897,0.3959,5.292
21.6900,-7.2203,1.1912,-2.1682,7.632
21.6900,-7.2203,1.1912,-2.1682,7.632
21.6900,-7.2203,1.1912,-2.1682,7.632
21.7090,-8.3790,0.1312,0.8792,8.426
21.7100,-8.3790,0.1312,0.8792,8.426
21.7250,-8.9969,-1.8289,1.2175,9.261
21.7420,-8.3868,-4.6029,1.7825,9.732
21.7430,-8.3868,-4.6029,1.7825,9.732
21.7630,-5.5858,-5.8066,5.4004,9.700
21.7640,-5.5858,-5.8066,5.4004,9.700
21.7950,-2.0581,-5.1710,7.1035,9.024
21.7960,-1.8486,-4.6587,6.8359,8.476
21.7960,-1.8486,-4.6587,6.8359,8.476
21.8090,-2.1224,-3.0774,5.6408,6.767
21.8270,-1.9740,-1.4348,-0.0757,2.442
21.8280,-1.9740,-1.4348,-0.0757,2.442
21.8410,-1.9034,-2.5805,-4.7189,5.705
21.8610,-2.5290,-4.2699,-6.2053,7.946
21.8610,-2.5290,-4.2699,-6.2053,7.946
21.8810,-1.6392,-5.5139,-6.8211,8.923
21.8810,-1.6392,-5.5139,-6.8211,8.923
21.8910,-0.6803,-6.7354,-6.6562,9.494
21.9080,2.3798,-9.5382,1.5126,9.946
21.9260,0.2746,-5.6101,1.3660,5.781
21.9270,0.2746,-5.6101,1.3660,5.781
21.9420,0.8479,-2.4972,-2.7591,3.817
21.9610,0.7569,-0.5342,-4.4969,4.591
21.9610,0.7569,-0.5342,-4.4969,4.591
21.9910,2.5925,1.7795,-6.2050,6.956
21.9920,3.1631,2.1872,-6.0819,7.196
21.9920,3.1631,2.1872,-6.0819,7.196
22.0090,4.2023,2.9995,-5.5383,7.572
22.0090,4.2023,2.9995,-5.5383,7.572
22.0260,4.5118,3.5251,-5.4619,7.913
22.0420,5.2216,4.0803,-5.3261,8.502
22.0430,5.2216,4.0803,-5.3261,8.502
22.0630,5.7052,4.6420,-5.4098,9.130
22.0640,5.8587,4.7457,-5.2437,9.184
22.0940,7.2770,5.7869,-4.9059,10.512
22.0940,7.2770,5.7869,-4.9059,10.512
22.0950,7.2770,5.7869,-4.9059,10.512
22.1090,8.2940,6.0862,-4.6213,11.278
22.1260,8.5452,5.8777,-4.4216,11.275
22.1270,8.5672,5.8952,-4.4042,11.294
22.1460,7.5986,6.4634,-3.8314,10.686
22.1460,7.5986,6.4634,-3.8314,10.686
22.1630,5.5396,6.6520,-3.9752,9.526
22.1790,3.6365,5.3564,-4.4486,7.855
22.1800,2.7179,4.2609,-4.2352,6.594
22.1910,-0.4697,0.4876,-1.6330,1.768
22.2090,-17.1662,-18.4523,31.6090,40.426
22.2100,-17.1662,-18.4523,31.6090,40.426
22.2260,-28.6333,-29.3591,6.3170,41.494
22.2430,-18.0597,-16.4053,-1.4877,24.444
22.2440,-10.2014,-8.8069,-0.5940,13.490
22.2630,2.4561,3.5358,2.5560,5.007
22.2630,2.4561,3.5358,2.5560,5.007
22.2840,3.6997,7.9294,3.2097,9.320
22.2850,3.6997,7.9294,3.2097,9.320
22.2940,3.6045,8.5525,0.0787,9.281
22.3090,4.3560,7.6627,-6.8411,11.158
22.3260,4.7189,3.4334,-7.6931,9.656
22.3260,4.7189,3.4334,-7.6931,9.656
22.3430,-2.6197,-6.7781,-1.7690,7.479
22.3630,-8.2384,-20.9659,2.0837,22.623
22.3630,-8.2384,-20.9659,2.0837,22.623
22.3830,11.1511,-0.0457,-4.4057,11.990
22.3840,11.1511,-0.0457,-4.4057,11.990
22.3900,12.4054,1.2513,-3.7432,13.018
22.4060,9.9692,3.9615,-2.5457,11.025
22.4240,9.0127,5.6962,-4.9910,11.772
22.4240,8.9744,6.0828,-5.7159,12.256
22.4410,8.3024,6.7334,-7.7174,13.184
22.4410,8.3024,6.7334,-7.7174,13.184
22.4630,3.1878,3.0525,-9.4642,10.443
22.4630,3.1878,3.0525,-9.4642,10.443
22.4940,-6.5331,-7.7579,1.3252,10.229
22.4940,-6.5331,-7.7579,1.3252,10.229
22.5080,-8.6436,-6.9846,8.3557,13.904
22.5090,-8.6436,-6.9846,8.3557,13.904
22.5260,-4.6756,-0.3461,2.7130,5.417
22.5430,-3.6296,1.8236,-4.8445,6.322
22.5430,-3.6296,1.8236,-4.8445,6.322
22.5620,-1.7749,0.8256,-4.7949,5.179
22.5630,-1.7749,0.8256,-4.7949,5.179
22.5930,0.8823,2.0158,-0.7741,2.333
22.5930,1.1619,2.3637,-0.3133,2.652
22.5940,1.1619,2.3637,-0.3133,2.652
22.6100,1.7219,3.3524,0.7884,3.850
22.6260,1.8751,3.7461,0.8491,4.274
22.6270,1.6455,3.2902,0.7411,3.753
22.6430,0.4503,0.7085,0.4965,0.975
22.6630,0.6521,0.0728,0.9655,1.167
22.6640,0.6521,0.0728,0.9655,1.167
22.6920,0.4685,0.7346,2.8186,2.950
22.6930,0.4685,0.7346,2.8186,2.950
22.6930,0.4685,0.7346,2.8186,2.950
22.7100,0.0927,1.5190,1.8217,2.374
22.7110,0.0927,1.5190,1.8217,2.374
22.7260,-0.2835,1.9181,0.5659,2.020
22.7430,-0.7191,2.0917,-0.4783,2.263
22.7440,-0.8605,2.1392,-0.7627,2.429
22.7640,-2.0039,1.7563,-0.8117,2.786
22.7640,-2.0039,1.7563,-0.8117,2.786
22.7930,-5.0678,0.8742,2.4835,5.711
22.7930,-5.0678,0.8742,2.4835,5.711
22.8100,-6.6660,-0.1895,4.8738,8.260
22.8110,-6.6660,-0.1895,4.8738,8.260
22.8270,-7.6149,-0.7779,3.4529,8.397
22.8270,-7.6149,-0.7779,3.4529,8.397
22.8440,-8.2231,-0.6932,1.7691,8.440
22.8640,-7.8266,-2.0049,1.2942,8.182
22.8650,-7.8266,-2.0049,1.2942,8.182
22.8960,-7.3058,-5.1903,3.3059,9.552
22.8960,-6.9243,-5.3948,3.8170,9.572
22.8970,-6.9243,-5.3948,3.8170,9.572
22.9100,-6.1900,-5.6566,4.5073,9.520
22.9270,-3.9356,-4.7219,6.0130,8.599
22.9280,-3.9356,-4.7219,6.0130,8.599
22.9430,-2.1051,-3.0348,4.5625,5.870
22.9640,-0.4688,-2.2939,0.5368,2.402
22.9650,-0.4688,-2.2939,0.5368,2.402
22.9970,-1.1572,-5.6591,-3.8561,6.945
22.9980,-0.9602,-6.4357,-4.2651,7.780
22.9980,-0.9602,-6.4357,-4.2651,7.780
22.9980,-0.9602,-6.4357,-4.2651,7.780
23.0100,-0.4624,-8.3185,-5.0159,9.725
23.0270,1.9002,-11.8387,-7.0756,13.922
23.0430,3.2640,-10.1534,-3.7186,11.295
23.0440,3.2640,-10.1534,-3.7186,11.295
23.0640,1.2925,-2.6272,3.4394,4.517
23.0660,0.7774,-1.7401,4.2418,4.650
23.0910,0.2477,-0.3621,-1.7365,1.791
23.0910,0.2477,-0.3621,-1.7365,1.791
23.1110,0.7094,0.1782,-5.0948,5.147
23.1110,0.7094,0.1782,-5.0948,5.147
23.1280,4.1374,2.1425,-3.8988,6.075
23.1280,4.1374,2.1425,-3.8988,6.075
23.1440,4.5478,2.9917,-5.2371,7.554
23.1640,4.8378,3.6065,-4.1566,7.327
23.1640,4.8378,3.6065,-4.1566,7.327
23.1920,5.8612,4.7508,-4.2269,8.648
23.1930,5.8612,4.7508,-4.2269,8.648
23.1930,5.8612,4.7508,-4.2269,8.648
23.2090,6.0502,4.9558,-4.7185,9.134
23.2260,6.5357,4.5456,-4.3221,9.059
23.2270,6.5357,4.5456,-4.3221,9.059
23.2430,6.9779,3.5177,-3.6786,8.637
23.2640,7.2137,3.1353,-4.2020,8.918
23.2640,7.2137,3.1353,-4.2020,8.918
23.2800,7.5512,3.5696,-4.6049,9.538
23.2810,7.5875,3.8235,-4.7429,9.731
23.2950,7.3633,4.3958,-4.9230,9.888
23.3110,6.2446,5.3173,-4.7321,9.469
23.3110,6.2446,5.3173,-4.7321,9.469
23.3270,3.0157,5.1034,-3.2846,6.777
23.3440,-3.0346,0.2734,2.6879,4.063
23.3450,-3.0346,0.2734,2.6879,4.063
23.3650,-19.7584,-13.3185,22.6377,32.867
23.3650,-19.7584,-13.3185,22.6377,32.867
23.3910,-23.4958,-16.7660,2.7752,28.997
23.3920,-17.6347,-12.4666,1.5098,21.649
23.4100,-1.1961,-0.9572,2.0712,2.576
23.4100,-1.1961,-0.9572,2.0712,2.576
23.4270,3.9859,4.0350,2.4035,6.160
23.4280,3.9859,4.0350,2.4035,6.160
23.4440,4.8218,2.4688,-1.7549,5.694
23.4650,2.1232,-4.4617,-4.0293,6.376
23.4650,2.1232,-4.4617,-4.0293,6.376
23.4930,-8.1578,-10.0913,2.4623,13.208
23.4940,-7.1952,-8.2604,1.9025,11.119
23.4940,-7.1952,-8.2604,1.9025,11.119
23.5110,5.0646,-0.1933,-2.4230,5.618
23.5280,12.7003,4.1729,-3.9376,13.936
23.5280,12.7003,4.1729,-3.9376,13.936
23.5450,10.3462,5.3490,-3.1940,12.077
23.5450,10.3462,5.3490,-3.1940,12.077
23.5640,8.6540,6.0043,-5.1561,11.727
23.5910,4.8773,1.1190,-8.7668,10.094
23.5910,4.8773,1.1190,-8.7668,10.094
23.5920,4.8773,1.1190,-8.7668,10.094
23.6110,-2.6967,-8.7318,-6.2797,11.088
23.6110,-2.6967,-8.7318,-6.2797,11.088
23.6280,-8.7869,-10.0001,6.7368,14.920
23.6440,-8.1024,-5.2081,6.7411,11.757
23.6450,-6.8754,-2.4521,4.6330,8.646
23.6610,-3.6262,3.3317,-2.3909,5.474
23.6860,-0.8634,1.4410,-3.6666,4.033
23.6940,-0.8634,1.4410,-3.6666,4.033
23.7180,0.8618,1.4570,-0.4524,1.752
23.7180,0.8672,1.6351,-0.6251,1.954
23.7190,0.8672,1.6351,-0.6251,1.954
23.7260,0.8107,1.8549,-0.8197,2.184
23.7450,0.1998,3.0092,-0.3801,3.040
23.7640,-1.0189,1.9397,0.4287,2.233
23.7650,-1.0189,1.9397,0.4287,2.233
23.7850,-0.7441,1.2467,-0.4837,1.530
23.7850,-0.7441,1.2467,-0.4837,1.530
23.7940,-0.1259,1.2385,0.1346,1.252
23.8110,0.9155,1.0122,2.8338,3.145
23.8280,1.0185,0.8833,2.9571,3.250
23.8280,1.0185,0.8833,2.9571,3.250
23.8460,0.8326,1.2809,1.0885,1.876
23.8470,0.8326,1.2809,1.0885,1.876
23.8620,0.6458,1.4149,-0.0711,1.557
23.8840,0.1441,1.8928,-0.0425,1.899
23.8840,-0.0716,2.1422,0.1968,2.152
23.9130,-4.0402,1.1527,2.1670,4.727
23.9140,-4.0402,1.1527,2.1670,4.727
23.9150,-4.0402,1.1527,2.1670,4.727
23.9280,-5.7202,0.2932,2.6589,6.315
23.9440,-7.1180,-0.4111,2.6981,7.623
23.9450,-7.5199,-0.5385,2.4510,7.928
23.9620,-7.9914,-0.2057,1.0772,8.066
23.9820,-8.8413,-0.3871,0.7995,8.886
23.9820,-8.8413,-0.3871,0.7995,8.886
24.0060,-8.5320,-3.3653,1.2094,9.251
24.0060,-8.5320,-3.3653,1.2094,9.251
24.0100,-8.2368,-4.0072,1.5575,9.291
24.0290,-6.2205,-5.6887,3.8327,9.260
24.0290,-6.2205,-5.6887,3.8327,9.260
24.0450,-4.3425,-5.6345,5.1911,8.806
24.0660,-1.5687,-3.5224,5.5035,6.720
24.0660,-1.5687,-3.5224,5.5035,6.720
24.0940,-0.7642,-2.1221,2.9724,3.731
24.0950,-0.8673,-2.6040,2.1819,3.506
24.0950,-0.8673,-2.6040,2.1819,3.506
24.1120,-1.3661,-4.5064,-0.8954,4.793
24.1280,-0.9781,-5.8085,-3.4160,6.809
24.1280,-0.6470,-6.3155,-4.0302,7.520
24.1450,1.2017,-8.2187,-5.7549,10.105
24.1650,4.6134,-11.0791,-7.0591,13.923
24.1660,4.6134,-11.0791,-7.0591,13.923
24.1900,2.7457,-5.5723,4.0969,7.441
24.1900,1.5541,-4.3565,5.7120,7.350
24.1910,1.5541,-4.3565,5.7120,7.350
24.1990,0.8444,-3.3667,6.1794,7.087
24.2110,0.4290,-1.6574,2.3829,2.934
24.2280,-0.1951,-0.9645,-3.8484,3.972
24.2450,0.2690,0.5338,-5.8587,5.889
24.2460,0.2690,0.5338,-5.8587,5.889
24.2620,1.8688,2.0521,-5.4305,6.099
24.2830,4.0012,3.5856,-4.8888,7.264
24.2840,4.0012,3.5856,-4.8888,7.264
24.3070,4.9234,4.3135,-4.9252,8.192
24.3070,4.9234,4.3135,-4.9252,8.192
24.3150,5.1087,4.5076,-5.0278,8.467
24.3270,5.6535,5.2220,-5.2950,9.342
24.3450,6.4607,5.9783,-5.1453,10.196
24.3620,7.1568,6.2297,-4.8949,10.677
24.3630,7.1568,6.2297,-4.8949,10.677
24.3820,7.6203,5.7505,-4.8773,10.720
24.3820,7.6203,5.7505,-4.8773,10.720
24.4100,7.3102,5.5066,-4.5567,10.224
24.4110,7.3102,5.5066,-4.5567,10.224
24.4300,6.2227,6.2930,-3.7109,9.597
24.4300,6.2227,6.2930,-3.7109,9.597
24.4450,4.2963,6.3971,-2.5836,8.127
24.4460,4.2963,6.3971,-2.5836,8.127
24.4630,0.4283,4.5180,-1.1122,4.673
24.4830,-8.7565,-6.1134,18.4755,21.340
24.4840,-15.2365,-11.2675,24.4798,30.958
24.5130,-27.6631,-25.1696,0.5357,37.404
24.5150,-26.0452,-22.6017,1.2788,34.508
24.5160,-26.0452,-22.6017,1.2788,34.508
24.5300,-5.8708,-5.3870,2.7901,8.442
24.5470,2.4871,2.5945,1.7405,3.993
24.5480,3.2121,4.3450,0.3243,5.413
24.5620,4.6793,7.6497,-5.2257,10.379
24.5820,5.9040,6.3326,-7.7674,11.631
24.5830,6.2815,4.8401,-7.1341,10.667
24.6130,0.9098,-15.5224,14.3167,21.136
24.6140,-3.3223,-21.6072,19.0283,28.982
24.6140,-3.3223,-21.6072,19.0283,28.982
24.6280,-2.7669,-22.2807,2.6910,22.613
24.6290,-2.7669,-22.2807,2.6910,22.613
24.6460,8.0652,-2.1542,-9.9410,12.981
24.6620,9.1076,5.9603,-6.4312,12.643
24.6630,8.8949,7.2484,-5.0411,12.533
24.6840,8.3634,9.4249,-6.2489,14.065
24.6840,8.3634,9.4249,-6.2489,14.065
24.7130,5.7494,7.4282,-8.3758,12.585
24.7140,5.7494,7.4282,-8.3758,12.585
24.7300,0.7609,2.3769,-8.3672,8.731
24.7300,0.7609,2.3769,-8.3672,8.731
24.7460,-4.2198,-6.0638,-3.8334,8.323
24.7470,-4.2198,-6.0638,-3.8334,8.323
24.7630,-8.9001,-12.2597,5.5183,16.123
24.7830,-3.7513,-2.2807,4.5149,6.297
24.7840,-3.7513,-2.2807,4.5149,6.297
24.8060,-0.7333,2.0284,-5.3313,5.751
24.8070,-0.3945,1.8816,-5.8707,6.177
24.8120,0.1952,1.8350,-5.6069,5.903
24.8290,0.8158,1.5023,-3.8463,4.209
24.8460,1.3839,1.7511,-1.5745,2.731
24.8470,1.3839,1.7511,-1.5745,2.731
24.8630,1.3274,2.1976,-0.7179,2.666
24.8840,0.2855,2.1095,0.3342,2.155
24.8850,0.2855,2.1095,0.3342,2.155
24.9140,-0.0970,1.0614,0.5723,1.210
24.9140,0.1881,0.9604,0.5122,1.105
24.9150,0.1881,0.9604,0.5122,1.105
24.9300,0.9648,0.7035,1.4494,1.878
24.9300,0.9648,0.7035,1.4494,1.878
24.9470,1.4974,0.5987,3.0263,3.429
24.9640,0.9141,0.8982,2.7871,3.068
24.9650,0.9141,0.8982,2.7871,3.068
24.9820,-0.0090,1.2457,0.1565,1.256
24.9830,-0.0090,1.2457,0.1565,1.256
25.0080,-0.7010,1.7101,-1.1540,2.179
25.0080,-0.8133,1.8623,-0.9259,2.233
25.0140,-0.8133,1.8623,-0.9259,2.233
25.0300,-2.0698,2.1717,0.7603,3.095
25.0470,-4.0510,1.4937,2.3175,4.900
25.0480,-4.7707,1.2429,2.9020,5.721
25.0640,-6.6440,0.9326,3.7241,7.673
25.0830,-8.1114,0.9520,1.3607,8.280
25.0840,-8.1114,0.9520,1.3607,8.280
25.1140,-8.5682,1.0023,0.9436,8.678
25.1140,-8.5682,1.0023,0.9436,8.678
25.1150,-8.7161,0.7369,1.3270,8.847
25.1300,-8.7454,-2.1062,1.2828,9.086
25.1460,-8.0861,-4.7647,1.6711,9.533
25.1470,-7.5540,-5.1550,2.0423,9.371
25.1640,-5.6398,-5.8475,3.2481,8.749
25.1840,-3.4631,-5.9052,4.6087,8.253
25.1840,-3.4631,-5.9052,4.6087,8.253
25.2120,-1.7100,-3.0833,4.1285,5.429
25.2130,-1.7100,-3.0833,4.1285,5.429
25.2130,-1.7100,-3.0833,4.1285,5.429
25.2310,-1.7716,-2.2487,1.9686,3.474
25.2470,-1.2752,-3.6736,-1.9818,4.364
25.2470,-1.2752,-3.6736,-1.9818,4.364
25.2640,-0.7790,-5.7090,-4.7049,7.439
25.2840,1.5051,-7.9002,-5.8189,9.927
25.2880,2.5710,-8.3846,-5.8078,10.519
25.3150,6.1904,-8.2083,2.4067,10.559
25.3160,6.1904,-8.2083,2.4067,10.559
25.3160,4.6066,-6.8002,4.5451,9.387
25.3300,2.0845,-4.2074,4.2746,6.350
25.3310,1.6464,-3.0895,3.0833,4.665
25.3480,0.8096,-0.9151,-0.9514,1.549
25.3640,-0.3201,-0.2242,-4.2368,4.255
25.3640,-0.3201,-0.2242,-4.2368,4.255
25.3850,0.1241,1.0360,-5.3903,5.490
25.4090,3.3212,2.8646,-5.4167,6.970
25.4090,3.3212,2.8646,-5.4167,6.970
25.4140,3.5515,2.9861,-5.4545,7.161
25.4290,4.0442,3.2284,-5.0032,7.198
25.4470,4.8512,3.7187,-4.9297,7.853
25.4480,4.8512,3.7187,-4.9297,7.853
25.4640,5.4728,4.1626,-5.1173,8.571
25.4640,5.4728,4.1626,-5.1173,8.571
25.4850,6.2291,4.8917,-4.7056,9.213
25.5120,7.6785,5.2372,-4.5672,10.356
25.5130,7.6785,5.2372,-4.5672,10.356
25.5130,7.7925,5.1010,-4.5113,10.349
25.5310,7.8567,5.0280,-4.3279,10.283
25.5310,7.8567,5.0280,-4.3279,10.283
25.5470,7.4901,5.5549,-4.2297,10.240
25.5640,6.8016,6.5055,-3.6977,10.112
25.5640,6.8016,6.5055,-3.6977,10.112
25.5840,5.3061,6.1304,-2.5051,8.486
25.5840,5.3061,6.1304,-2.5051,8.486
25.6090,-1.5767,-0.8239,5.1099,5.411
25.6100,-4.5709,-4.3604,11.6699,13.270
25.6150,-4.5709,-4.3604,11.6699,13.270
25.6310,-27.5970,-24.3926,15.9853,40.151
25.6470,-28.4679,-24.1962,1.5063,37.392
25.6470,-28.4679,-24.1962,1.5063,37.392
25.6650,-3.8237,-3.2307,-0.1012,5.007
25.6840,4.4402,4.6169,6.3961,9.052
25.6840,4.4402,4.6169,6.3961,9.052
25.7140,6.3602,10.3051,-8.7194,14.922
25.7140,6.3602,10.3051,-8.7194,14.922
25.7140,6.3602,10.3051,-8.7194,14.922
25.7300,6.0253,6.2411,-13.3471,15.919
25.7470,2.0474,-1.3663,-7.2719,7.677
25.7480,2.0474,-1.3663,-7.2719,7.677
25.7640,-15.0996,-29.3276,23.9424,40.760
25.7850,5.8450,-11.4775,-7.9522,15.137
25.7850,5.8450,-11.4775,-7.9522,15.137
25.8140,10.2248,7.6690,-3.7056,13.308
25.8140,10.2248,7.6690,-3.7056,13.308
25.8140,10.2248,7.6690,-3.7056,13.308
25.8320,8.5886,9.9536,-4.5530,13.913
25.8320,8.5886,9.9536,-4.5530,13.913
25.8480,7.2529,9.9016,-5.4625,13.435
25.8640,3.9289,8.0897,-6.5629,11.133
25.8650,2.2063,6.9177,-6.3340,9.635
25.8850,-6.0688,-2.5411,-2.5443,7.054
25.8860,-6.0688,-2.5411,-2.5443,7.054
25.9130,-9.7658,-11.2404,5.6580,15.929
25.9140,-8.1124,-9.6345,4.6314,13.420
25.9310,-2.0572,-0.8293,0.7424,2.339
25.9310,-2.0572,-0.8293,0.7424,2.339
25.9490,0.7144,2.0201,-6.4856,6.830
25.9490,0.7144,2.0201,-6.4856,6.830
25.9650,0.2928,0.7388,-5.3485,5.407
25.9850,1.1060,1.0989,-2.1772,2.678
25.9860,1.3386,1.3342,-1.5380,2.437
26.0120,1.7813,2.3875,0.4174,3.008
26.0130,1.7813,2.3875,0.4174,3.008
26.0310,1.0763,1.7130,2.0295,2.866
26.0320,1.0763,1.7130,2.0295,2.866
26.0480,0.6432,0.4650,2.1253,2.269
26.0490,0.7959,0.3341,1.7897,1.987
26.0650,1.6157,0.5059,0.5127,1.769
26.0860,2.2227,1.0687,0.4405,2.505
26.0860,2.3002,1.1258,0.9139,2.719
26.1100,1.9520,0.9782,2.0337,2.984
26.1100,1.8129,1.0396,2.0752,2.945
26.1100,1.8129,1.0396,2.0752,2.945
26.1200,1.4625,1.1973,1.7606,2.583
26.1320,1.0432,1.3420,1.2663,2.120
26.1480,0.4550,1.7909,0.5521,1.928
26.1650,-1.4350,1.9267,0.0725,2.403
26.1650,-1.4350,1.9267,0.0725,2.403
26.1850,-3.7272,1.4591,-0.0127,4.003
26.1860,-3.7272,1.4591,-0.0127,4.003
26.2140,-7.0381,0.7015,-0.1109,7.074
26.2320,-8.7334,0.2460,1.3950,8.848
26.2330,-8.7334,0.2460,1.3950,8.848
26.2490,-9.4671,-0.1120,3.0903,9.959
26.2490,-9.7947,-0.5263,3.8498,10.537
26.2650,-10.1837,-3.4266,3.9157,11.436
26.2850,-9.2691,-5.3258,3.5495,11.264
26.2860,-9.2691,-5.3258,3.5495,11.264
26.3150,-5.5813,-6.2744,6.3591,10.534
26.3160,-5.5813,-6.2744,6.3591,10.534
26.3160,-5.5813,-6.2744,6.3591,10.534
26.3320,-1.8533,-5.4238,4.5466,7.316
26.3320,-1.8533,-5.4238,4.5466,7.316
26.3480,0.3841,-4.2024,0.2569,4.228
26.3660,0.9604,-4.2983,-3.9733,5.932
26.3660,0.9604,-4.2983,-3.9733,5.932
26.3870,1.5672,-6.3487,-4.6039,7.997
26.3880,1.5672,-6.3487,-4.6039,7.997
26.4170,5.6493,-11.9838,-1.4256,13.325
26.4170,5.6493,-11.9838,-1.4256,13.325
26.4310,4.8069,-8.6733,3.3137,10.455
26.4320,4.8069,-8.6733,3.3137,10.455
26.4490,1.3531,-2.9655,0.5874,3.312
26.4650,0.9620,-0.7410,-2.5440,2.819
26.4810,-0.8476,0.0559,-4.5979,4.676
26.4840,-0.8476,0.0559,-4.5979,4.676
26.4840,-0.8476,0.0559,-4.5979,4.676
26.5010,-1.5749,0.3857,-4.8813,5.144
26.5180,1.5015,1.8515,-4.7560,5.320
26.5320,3.6475,2.5106,-4.7869,6.521
26.5480,4.6736,2.4518,-4.5649,6.978
26.5490,4.6736,2.4518,-4.5649,6.978
26.5650,5.3669,2.9324,-4.7565,7.748
26.5860,6.0552,3.9857,-4.9603,8.784
26.5860,6.2195,4.2621,-4.8091,8.943
26.6100,6.5896,5.1909,-4.5075,9.523
26.6110,6.7983,5.4290,-4.2969,9.703
26.6110,6.7983,5.4290,-4.2969,9.703
26.6200,7.1860,5.7647,-4.0270,10.054
26.6310,7.3846,5.6633,-3.9728,10.119
26.6490,7.5494,5.4135,-3.8082,10.040
26.6650,7.3420,5.7764,-3.9342,10.137
26.6660,7.3420,5.7764,-3.9342,10.137
26.6820,7.1734,6.5176,-3.7344,10.387
26.7030,5.7442,6.9206,-0.9847,9.048
26.7040,5.7442,6.9206,-0.9847,9.048
26.7300,-0.1180,2.4518,6.0121,6.494
26.7300,-0.1180,2.4518,6.0121,6.494
26.7310,-2.2696,-0.0950,11.2413,11.468
26.7500,-20.1622,-14.1657,22.9919,33.702
26.7510,-20.1622,-14.1657,22.9919,33.702
26.7650,-25.5830,-22.1296,0.1952,33.827
26.7890,-10.0935,-7.8224,0.6126,12.785
26.7900,-4.9790,-4.0272,1.7958,6.651
26.8150,3.8938,6.6237,2.8717,8.203
26.8160,3.8938,6.6237,2.8717,8.203
26.8160,3.8938,6.6237,2.8717,8.203
26.8330,5.1233,8.2236,-5.2133,11.002
26.8490,5.8901,5.9570,-12.5038,15.051
26.8490,5.8901,5.9570,-12.5038,15.051
26.8670,2.2730,-0.9924,-3.6940,4.449
26.8670,2.2730,-0.9924,-3.6940,4.449
26.8870,-13.8722,-28.9421,23.9474,40.044
26.9080,7.2742,-13.5549,-7.6994,17.203
26.9090,12.0712,-6.7089,-10.5555,17.382
26.9090,12.0712,-6.7089,-10.5555,17.382
26.9190,13.9628,-2.3954,-10.7260,17.769
26.9320,12.5834,4.3664,-4.7067,14.127
26.9500,10.5620,9.7494,-3.6512,14.830
26.9660,9.2702,10.7156,-6.2169,15.473
26.9670,8.3148,10.4531,-6.9245,15.045
26.9820,5.5551,9.4868,-8.0659,13.635
27.0040,0.3591,4.1622,-10.2056,11.028
27.0050,-0.9114,2.1798,-10.5710,10.832
27.0060,-0.9114,2.1798,-10.5710,10.832
27.0290,-10.0768,-10.3738,10.6296,17.948
27.0300,-10.0768,-10.3738,10.6296,17.948
27.0490,-8.1954,-9.0331,5.3779,13.330
27.0500,-8.1954,-9.0331,5.3779,13.330
27.0650,-0.8900,-1.6466,1.3079,2.283
27.0860,1.5459,0.1675,-4.0402,4.329
27.0880,1.6570,0.5133,-4.2228,4.565
27.1150,2.0870,1.6819,-2.4200,3.611
27.1160,2.0870,1.6819,-2.4200,3.611
27.1160,2.1537,1.9903,-2.0053,3.553
27.1330,2.1591,2.5468,-0.5843,3.390
27.1330,2.1591,2.5468,-0.5843,3.390
27.1500,1.9770,2.8246,1.1844,3.646
27.1660,1.3262,2.5934,0.9915,3.077
27.1670,1.3262,2.5934,0.9915,3.077
27.1830,0.1415,1.4847,-0.2313,1.509
27.2040,-0.6617,0.4196,1.3751,1.583
27.2040,-0.6617,0.4196,1.3751,1.583
27.2340,0.3207,1.6331,0.9693,1.926
27.2340,0.3207,1.6331,0.9693,1.926
27.2350,0.3207,1.6331,0.9693,1.926
27.2490,-0.5039,1.4453,1.0403,1.851
27.2500,-0.5039,1.4453,1.0403,1.851
27.2670,-1.7379,0.6763,0.9870,2.110
27.2830,-2.2484,1.0609,1.1930,2.758
27.2830,-2.2484,1.0609,1.1930,2.758
27.3030,-3.1604,1.7166,2.3682,4.306
27.3040,-3.4440,1.7650,2.4600,4.586
27.3290,-5.7181,0.9327,1.2024,5.917
27.3300,-5.7181,0.9327,1.2024,5.917
27.3510,-7.7497,0.2894,0.1616,7.757
27.3510,-7.7497,0.2894,0.1616,7.757
27.3670,-9.1998,-0.2617,2.0303,9.425
27.3680,-9.5948,-1.1398,2.4538,9.969
27.3830,-8.2369,-3.1508,2.6799,9.217
27.4030,-6.1766,-4.7032,4.6327,9.041
27.4030,-6.1766,-4.7032,4.6327,9.041
27.4320,-4.2569,-6.7077,6.1413,10.041
27.4320,-4.2569,-6.7077,6.1413,10.041
27.4320,-4.2569,-6.7077,6.1413,10.041
27.4500,-2.7609,-4.7967,5.0715,7.507
27.4660,-2.0350,-1.2153,2.2029,3.236
27.4670,-2.0350,-1.2153,2.2029,3.236
27.4830,-1.8687,-0.8394,-0.8226,2.208
27.5030,-1.7804,-3.1940,-4.9070,6.120
27.5030,-1.7804,-3.1940,-4.9070,6.120
27.5290,-1.1978,-5.7458,-5.2528,7.877
27.5300,-0.9585,-6.5716,-5.1633,8.412
27.5300,-0.9585,-6.5716,-5.1633,8.412
27.5490,0.8154,-9.4632,-3.4627,10.110
27.5500,1.6682,-10.4485,-2.1582,10.799
27.5660,2.6297,-11.2649,1.9574,11.732
27.5820,-0.0156,-5.4185,0.5465,5.446
27.5820,-0.0156,-5.4185,0.5465,5.446
27.6040,0.7634,-0.4081,-1.9485,2.132
27.6040,0.7634,-0.4081,-1.9485,2.132
27.6320,0.5332,1.6036,-5.4427,5.699
27.6320,0.5332,1.6036,-5.4427,5.699
27.6500,2.8979,3.1150,-5.7701,7.169
27.6510,2.8979,3.1150,-5.7701,7.169
27.6670,4.0723,3.6138,-5.4568,7.708
27.6680,4.0723,3.6138,-5.4568,7.708
27.6840,4.7531,3.8008,-4.7402,7.714
27.7040,5.3941,4.1728,-5.0093,8.462
27.7050,5.6046,4.3265,-5.0499,8.697
27.7320,6.7413,5.4214,-4.4950,9.749
27.7330,6.7413,5.4214,-4.4950,9.749
27.7330,6.7413,5.4214,-4.4950,9.749
27.7500,7.3524,5.8753,-4.3118,10.352
27.7670,7.7913,5.8486,-3.9900,10.528
27.7680,7.7913,5.8486,-3.9900,10.528
27.7830,7.7287,5.6810,-3.7396,10.295
27.8040,6.8584,5.7574,-3.4403,9.593
27.8050,6.5638,5.8485,-3.1991,9.355
27.8310,4.9272,5.3917,-1.5800,7.473
27.8320,4.9272,5.3917,-1.5800,7.473
27.8320,4.9272,5.3917,-1.5800,7.473
27.8510,0.9188,1.1031,1.2416,1.898
27.8510,0.9188,1.1031,1.2416,1.898
27.8680,-16.4218,-16.2804,33.6336,40.816
27.8840,-27.2841,-25.7915,3.8876,37.746
27.8850,-27.2841,-25.7915,3.8876,37.746
27.9050,-14.3791,-11.0017,-2.2707,18.247
27.9050,-7.1253,-5.6960,-0.7159,9.150
27.9330,2.1248,4.8395,5.2367,7.440
27.9340,2.1248,4.8395,5.2367,7.440
27.9510,2.1680,9.5092,-2.5840,10.090
27.9510,2.1680,9.5092,-2.5840,10.090
27.9670,3.1777,9.8324,-11.9304,15.783
27.9680,3.7188,9.2501,-12.6652,16.118
27.9840,4.1820,5.4605,-9.2935,11.562
28.0040,-10.3000,-17.8539,18.4840,27.686
28.0050,-10.3000,-17.8539,18.4840,27.686
28.0340,9.7544,-11.3868,-9.9578,17.999
28.0350,12.8784,-5.2820,-10.3143,17.324
28.0360,12.8784,-5.2820,-10.3143,17.324
28.0510,13.5955,4.7836,-5.2588,15.342
28.0670,11.3982,8.6038,-2.4213,14.485
28.0680,11.0402,9.3161,-3.0556,14.765
28.0840,10.1190,9.9393,-4.5751,14.904
28.1040,7.0343,9.1039,-6.6568,13.292
28.1050,7.0343,9.1039,-6.6568,13.292
28.1330,-0.5547,-0.5521,-10.2072,10.237
28.1340,-0.5547,-0.5521,-10.2072,10.237
28.1340,-0.5547,-0.5521,-10.2072,10.237
28.1510,-7.4178,-9.8454,2.1780,12.518
28.1510,-7.4178,-9.8454,2.1780,12.518
28.1680,-10.3256,-10.8514,9.6006,17.792
28.1840,-1.9343,-0.3689,2.5693,3.237
28.1850,-1.9343,-0.3689,2.5693,3.237
28.2050,-0.7549,2.2447,-5.5599,6.043
28.2060,-0.7549,2.2447,-5.5599,6.043
28.2350,-0.2370,0.3161,-3.6003,3.622
28.2350,-0.2370,0.3161,-3.6003,3.622
28.2350,-0.2370,0.3161,-3.6003,3.622
28.2500,0.8233,1.2870,-2.0659,2.569
28.2680,1.8843,2.8859,0.3726,3.467
28.2690,1.8843,2.8859,0.3726,3.467
28.2840,2.1130,3.6542,1.9710,4.659
28.3040,0.7614,1.3598,0.9723,1.837
28.3050,0.5728,0.6826,0.7326,1.154
28.3370,1.7882,0.9207,2.5032,3.211
28.3380,1.9557,1.0748,2.7654,3.554
28.3390,1.9557,1.0748,2.7654,3.554
28.3500,1.8043,1.0703,2.9885,3.651
28.3510,1.8043,1.0703,2.9885,3.651
28.3680,0.2916,0.5612,1.7239,1.836
28.3850,-0.3778,0.5959,0.5060,0.868
28.3860,-0.3778,0.5959,0.5060,0.868
28.4040,-0.8870,1.0710,-0.4907,1.475
28.4060,-1.0416,1.2343,-0.4699,1.682
28.4340,-2.5307,2.3843,1.0515,3.632
28.4350,-3.1624,2.3691,1.4916,4.223
28.4520,-5.1513,2.0415,2.2048,5.964
28.4520,-5.1513,2.0415,2.2048,5.964
28.4680,-7.2782,1.1037,0.5573,7.382
28.4690,-7.8114,0.8226,-0.1435,7.856
28.4850,-8.7236,0.9763,-0.6260,8.800
28.5050,-10.0128,0.6582,1.3623,10.126
28.5060,-10.4906,-0.2972,1.5408,10.607
28.5370,-9.5590,-5.4581,2.4905,11.286
28.5380,-9.5590,-5.4581,2.4905,11.286
28.5380,-9.5590,-5.4581,2.4905,11.286
28.5520,-8.0833,-6.7196,3.8314,11.188
28.5680,-6.7166,-7.4703,4.6428,11.067
28.5690,-5.8998,-7.3732,5.1791,10.770
28.5850,-2.9886,-6.4421,6.6235,9.711
28.5860,-2.9886,-6.4421,6.6235,9.711
28.6050,0.7505,-4.5748,4.7135,6.611
28.6380,0.2594,-5.4545,-2.2295,5.898
28.6390,0.2594,-5.4545,-2.2295,5.898
28.6390,0.2594,-5.4545,-2.2295,5.898
28.6390,0.2594,-5.4545,-2.2295,5.898
28.6510,0.3716,-6.7050,-4.1834,7.912
28.6680,1.7544,-8.0270,-5.2122,9.730
28.6850,4.2373,-9.1310,-6.1432,11.793
28.6860,5.4014,-9.5634,-5.3812,12.231
28.7050,3.9635,-6.4518,4.0490,8.587
28.7060,3.9635,-6.4518,4.0490,8.587
28.7360,-0.2410,-0.7836,-0.5352,0.979
28.7370,-0.5501,-0.5883,-2.0863,2.236
28.7380,-0.5501,-0.5883,-2.0863,2.236
28.7520,-1.3642,-0.4654,-6.2683,6.432
28.7690,-0.2807,0.2501,-5.5555,5.568
28.7690,-0.2807,0.2501,-5.5555,5.568
28.7860,2.2692,1.8015,-5.1168,5.880
28.8080,3.9673,2.8683,-4.9412,6.956
28.8080,3.9673,2.8683,-4.9412,6.956
28.8380,4.9226,3.4139,-5.8642,8.383
28.8390,5.1076,3.6065,-6.0200,8.680
28.8390,5.1076,3.6065,-6.0200,8.680
28.8510,5.7797,4.0882,-5.5662,9.006
28.8680,6.8794,5.0012,-5.0829,9.908
28.8690,6.8794,5.0012,-5.0829,9.908
28.8850,7.6313,5.6870,-5.2356,10.862
28.9060,8.5563,6.4399,-4.7120,11.700
28.9070,8.5563,6.4399,-4.7120,11.700
28.9390,8.2878,7.9635,-3.8165,12.111
28.9390,7.9996,8.1387,-3.5794,11.960
28.9390,7.9996,8.1387,-3.5794,11.960
28.9520,6.8288,8.2685,-3.5314,11.290
28.9530,6.8288,8.2685,-3.5314,11.290
28.9680,4.3642,7.3323,-3.6477,9.280
28.9860,1.5400,3.5053,-0.1612,3.832
28.9860,1.5400,3.5053,-0.1612,3.832
29.0020,-18.7335,-16.9679,29.3844,38.760
29.0220,-28.6429,-30.6119,1.3212,41.943
29.0240,-28.6429,-30.6119,1.3212,41.943
29.0470,-1.7033,-4.9853,2.0362,5.648
29.0480,-1.7033,-4.9853,2.0362,5.648
29.0480,-1.7033,-4.9853,2.0362,5.648
29.0690,5.0771,4.4604,5.3302,8.607
29.0690,5.0771,4.4604,5.3302,8.607
29.0850,6.3440,8.2075,0.5244,10.387
29.1050,4.5235,4.5490,-9.6447,11.583
29.1060,4.5235,4.5490,-9.6447,11.583
29.1330,-7.8067,-9.0536,-0.3732,11.960
29.1340,-7.8067,-9.0536,-0.3732,11.960
29.1520,-2.4970,-13.5965,8.9335,16.459
29.1530,-2.4970,-13.5965,8.9335,16.459
29.1690,12.5691,-1.9720,-2.7755,13.022
29.1700,13.7009,-0.3276,-5.3941,14.728
29.1860,11.7671,1.1690,-5.5286,13.054
29.2070,7.2285,5.0979,-4.2213,9.801
29.2070,7.2285,5.0979,-4.2213,9.801
29.2370,4.6667,5.4553,-8.1533,10.863
29.2380,3.7808,4.8005,-8.3976,10.386
29.2390,3.7808,4.8005,-8.3976,10.386
29.2530,1.0617,2.0772,-8.4157,8.733
29.2690,-4.6050,-5.4441,-4.0757,8.213
29.2700,-4.6050,-5.4441,-4.0757,8.213
29.2860,-8.3414,-7.7298,7.6809,13.723
29.3060,-4.1803,-0.8521,3.9334,5.803
29.3060,-4.1803,-0.8521,3.9334,5.803
29.3340,-1.7281,1.4176,-6.7311,7.092
29.3340,-1.3730,1.1607,-6.4484,6.694
29.3350,-1.3730,1.1607,-6.4484,6.694
29.3530,0.2856,1.2785,-4.1787,4.379
29.3540,0.2856,1.2785,-4.1787,4.379
29.3690,1.6275,2.0209,-1.0712,2.807
29.3860,2.1517,2.8283,0.0790,3.555
29.3870,2.1861,3.0679,0.3873,3.787
29.4020,1.9508,3.5464,1.1475,4.207
29.4230,0.4614,1.9075,1.0258,2.214
29.4240,0.4614,1.9075,1.0258,2.214
29.4530,1.0312,0.7994,1.0897,1.700
29.4540,1.0312,0.7994,1.0897,1.700
29.4540,1.3413,1.0183,1.5528,2.291
29.4690,1.7419,1.3102,2.7108,3.478
29.4850,1.5173,1.3470,2.8952,3.535
29.4860,1.2944,1.3274,2.7432,3.311
29.5020,0.1346,0.9458,0.9999,1.383
29.5200,-0.8220,1.1482,-0.3943,1.466
29.5210,-0.8220,1.1482,-0.3943,1.466
29.5370,-1.3915,1.3338,-0.2932,1.950
29.5370,-1.7513,1.3681,-0.3303,2.247
29.5520,-2.9161,1.3781,-0.1067,3.227
29.5690,-4.2137,1.4907,0.9945,4.579
29.5700,-4.7651,1.4379,1.5398,5.210
29.5860,-6.7321,1.0582,3.7905,7.798
29.6020,-8.7028,0.3507,4.5205,9.813
29.6030,-9.2646,0.1237,3.9846,10.086
29.6230,-10.6523,-0.1489,1.1204,10.712
29.6230,-10.6523,-0.1489,1.1204,10.712
29.6470,-10.4678,-0.8341,2.3691,10.765
29.6480,-10.4678,-0.8341,2.3691,10.765
29.6520,-10.0957,-1.4419,2.3149,10.458
29.6680,-9.2130,-4.0304,2.6820,10.408
29.6860,-6.6388,-6.3333,5.3074,10.600
29.7020,-3.7546,-6.3854,7.3845,10.460
29.7070,-2.7246,-6.0741,7.3260,9.899
29.7080,-2.7246,-6.0741,7.3260,9.899
29.7220,-0.5785,-4.4702,4.7859,6.574
29.7420,-1.0738,-3.0458,-1.2089,3.448
29.7430,-1.0738,-3.0458,-1.2089,3.448
29.7520,-1.9699,-3.8946,-4.3417,6.156
29.7700,-2.6725,-4.8580,-6.6188,8.634
29.7710,-2.6725,-4.8580,-6.6188,8.634
29.7860,-2.2729,-6.4584,-6.6838,9.568
29.8030,-0.1218,-10.7803,-4.0037,11.500
29.8040,-0.1218,-10.7803,-4.0037,11.500
29.8240,5.4611,-14.5141,2.9175,15.780
29.8240,5.0085,-13.1147,4.0896,14.622
29.8560,1.6280,-2.1438,-1.2922,2.986
29.8570,1.6280,-2.1438,-1.2922,2.986
29.8570,1.6280,-2.1438,-1.2922,2.986
29.8700,0.8375,-0.3124,-3.5217,3.633
29.8870,0.7911,0.4851,-5.6078,5.684
29.8880,0.9519,0.7348,-5.9572,6.077
29.9050,2.5666,1.8356,-5.3555,6.216
29.9250,3.9631,3.1707,-6.3071,8.096
29.9250,3.9631,3.1707,-6.3071,8.096
29.9560,5.2771,4.8528,-5.8892,9.278
29.9560,5.2771,4.8528,-5.8892,9.278
29.9570,5.2771,4.8528,-5.8892,9.278
29.9700,5.8884,5.5472,-5.7766,9.940
29.9710,5.8884,5.5472,-5.7766,9.940
29.9860,6.6936,6.2258,-5.1917,10.513
30.0040,7.9776,6.7951,-5.0933,11.651
30.0050,7.9776,6.7951,-5.0933,11.651
30.0240,9.5367,6.4863,-4.7759,12.483
30.0260,9.5367,6.4863,-4.7759,12.483
30.0480,9.8425,5.9375,-3.8973,12.137
30.0480,9.8425,5.9375,-3.8973,12.137
30.0560,9.3908,5.9951,-3.9370,11.816
30.0690,7.7652,6.5565,-3.9219,10.893
30.0860,6.2235,7.0627,-3.4614,10.030
30.1050,1.2625,3.0267,1.4181,3.573
30.1050,1.2625,3.0267,1.4181,3.573
30.1240,-18.6298,-18.4568,36.5344,44.972
30.1240,-18.6298,-18.4568,36.5344,44.972
30.1470,-21.8347,-29.5733,-3.5931,36.936
30.1480,-21.8347,-29.5733,-3.5931,36.936
30.1540,-16.4565,-22.8793,-1.6071,28.229
30.1700,-2.4608,-3.6579,1.0775,4.538
30.1870,1.4002,5.7214,5.0062,7.730
30.1870,1.4002,5.7214,5.0062,7.730
30.2030,2.1738,9.6122,1.6475,9.992
30.2250,4.8830,11.5661,-10.6202,16.444
30.2250,4.8830,11.5661,-10.6202,16.444
30.2520,0.5448,-2.3344,-0.8602,2.547
30.2530,-5.9684,-11.9399,13.1868,18.764
30.2540,-5.9684,-11.9399,13.1868,18.764
30.2710,-12.9951,-32.8054,-2.2791,35.359
30.2880,4.6482,-10.6393,-3.0505,12.004
30.2880,4.6482,-10.6393,-3.0505,12.004
30.3040,13.1926,3.0896,-3.6214,14.025
30.3050,13.1926,3.0896,-3.6214,14.025
30.3250,11.8693,8.5952,-4.9574,15.470
30.3250,11.8693,8.5952,-4.9574,15.470
30.3530,10.1695,8.8775,-4.5955,14.260
30.3540,9.3192,8.6580,-4.7278,13.571
30.3700,6.0473,5.9639,-4.2756,9.509
30.3710,6.0473,5.9639,-4.2756,9.509
30.3870,1.5505,-2.2456,-6.3249,6.888
30.4040,-4.7257,-9.8993,-5.7610,12.390
30.4050,-4.7257,-9.8993,-5.7610,12.390
30.4240,-7.2742,-8.2450,6.7753,12.915
30.4250,-7.2742,-8.2450,6.7753,12.915
30.4540,-1.3880,3.5729,-2.2084,4.424
30.4540,-1.3880,3.5729,-2.2084,4.424
30.4540,-1.3880,3.5729,-2.2084,4.424
30.4720,-2.9434,0.8188,-4.5658,5.494
30.4880,-1.8348,0.5506,-3.4767,3.969
30.4880,-1.8348,0.5506,-3.4767,3.969
30.5040,0.3532,1.8343,-0.9828,2.111
30.5240,1.7934,3.1690,1.1752,3.826
30.5250,1.7934,3.1690,1.1752,3.826
30.5560,1.6270,1.9866,1.5703,3.010
30.5570,1.4322,1.5053,1.2721,2.436
30.5570,1.4322,1.5053,1.2721,2.436
30.5710,1.2263,1.0489,1.0569,1.929
30.5720,1.2263,1.0489,1.0569,1.929
30.5880,1.1929,1.6869,2.2409,3.048
30.6040,0.4861,1.6618,2.8115,3.302
30.6050,0.4861,1.6618,2.8115,3.302
30.6250,-0.6817,1.0846,0.8953,1.563
30.6260,-0.6817,1.0846,0.8953,1.563
30.6540,-2.3973,1.3063,1.1690,2.970
30.6540,-2.3973,1.3063,1.1690,2.970
30.6710,-3.3754,1.9513,2.3785,4.567
30.6710,-3.3754,1.9513,2.3785,4.567
30.6880,-4.9762,1.4308,4.1788,6.654
30.6880,-4.9762,1.4308,4.1788,6.654
30.7040,-7.0276,0.2176,4.4734,8.333
30.7250,-9.1944,0.2290,-0.5821,9.216
30.7250,-9.1944,0.2290,-0.5821,9.216
30.7520,-9.8265,-0.4057,-0.3202,9.840
30.7520,-9.8265,-0.4057,-0.3202,9.840
30.7670,-9.5147,-2.6129,0.5206,9.881
30.7700,-9.3656,-3.4838,0.7939,10.024
30.7860,-7.9715,-5.4417,2.6084,9.998
30.7870,-7.0963,-5.6707,3.6431,9.787
30.8030,-4.5426,-5.7632,5.8998,9.416
30.8240,-1.6555,-5.5439,6.9335,9.031
30.8250,-0.9805,-5.4655,6.7744,8.759
30.8380,0.0412,-4.9572,5.2654,7.232
30.8380,0.0412,-4.9572,5.2654,7.232
30.8520,0.6103,-4.0106,2.2877,4.657
30.8690,-0.0603,-4.4552,-2.6115,5.165
30.8700,-0.0603,-4.4552,-2.6115,5.165
30.8850,-0.2614,-6.9791,-4.6443,8.387
30.9060,2.4011,-11.0180,-5.0039,12.337
30.9060,2.4011,-11.0180,-5.0039,12.337
30.9240,8.0801,-11.8325,-0.2013,14.330
30.9240,8.0801,-11.8325,-0.2013,14.330
30.9370,3.9172,-6.2124,3.1372,7.986
30.9520,1.0489,-2.0911,0.9959,2.543
30.9520,1.0489,-2.0911,0.9959,2.543
30.9690,-1.1900,0.4572,-2.5114,2.816
30.9860,-1.6674,1.0455,-4.5219,4.932
30.9860,-1.6674,1.0455,-4.5219,4.932
31.0020,0.1631,1.4996,-4.5261,4.771
31.0030,1.0727,1.7527,-4.6310,5.066
31.0210,3.3246,2.3963,-5.4523,6.821
31.0360,4.1989,2.4575,-5.9904,7.717
31.0360,4.1989,2.4575,-5.9904,7.717
31.0520,4.7070,2.9209,-4.9738,7.445
31.0700,4.9505,3.5050,-4.9973,7.859
31.0700,4.9929,3.6790,-4.9676,7.946
31.0870,5.2374,4.2374,-4.5918,8.153
31.0870,5.2374,4.2374,-4.5918,8.153
31.1030,5.6748,4.7764,-4.4329,8.641
31.1240,6.5542,4.9913,-5.1042,9.691
31.1240,6.5542,4.9913,-5.1042,9.691
31.1370,7.1518,5.0402,-4.9270,10.041
31.1530,8.0833,5.2150,-3.7075,10.309
31.1540,8.0833,5.2150,-3.7075,10.309
31.1690,7.7706,5.4003,-3.1697,9.980
31.1880,6.2458,6.4657,-3.7812,9.753
31.1880,6.2458,6.4657,-3.7812,9.753
31.2030,5.1379,6.8068,-2.5444,8.900
31.2030,5.1379,6.8068,-2.5444,8.900
31.2210,0.1747,4.2484,10.1724,11.025
31.2210,0.1747,4.2484,10.1724,11.025
31.2360,-18.4765,-7.3132,29.9640,35.954
31.2530,-20.2348,-17.5732,7.0351,27.708
31.2530,-20.2348,-17.5732,7.0351,27.708
31.2690,-14.1059,-21.4586,-0.1003,25.680
31.2870,-4.5442,-6.2009,0.8585,7.736
31.2870,-1.9846,-2.6950,1.6463,3.730
31.3030,3.2316,2.0335,4.0280,5.550
31.3030,3.2316,2.0335,4.0280,5.550
31.3240,7.5300,-0.6180,-1.0079,7.622
31.3240,7.5300,-0.6180,-1.0079,7.622
31.3410,7.7706,-2.7505,0.3691,8.251
31.3540,3.8486,-3.3963,3.0766,5.984
31.3700,0.5446,-0.4982,-4.0325,4.100
31.3700,0.5446,-0.4982,-4.0325,4.100
31.3880,5.1147,3.5062,-2.7517,6.784
31.3880,5.1147,3.5062,-2.7517,6.784
31.4040,7.0812,1.1887,-4.3678,8.404
31.4230,4.6448,-0.4538,-7.0796,8.479
31.4230,4.6448,-0.4538,-7.0796,8.479
31.4430,1.5742,-0.4545,-7.5189,7.695
31.4440,1.5742,-0.4545,-7.5189,7.695
31.4530,-0.3721,-0.9324,-6.7817,6.856
31.4700,-2.9492,-2.1068,-4.0743,5.453
31.4700,-3.5371,-2.3582,-3.0045,5.206
31.4870,-4.4387,-2.7396,-0.7030,5.263
31.5030,-2.9091,-0.9418,0.5669,3.110
31.5040,-2.9091,-0.9418,0.5669,3.110
31.5220,-0.2851,1.1747,-0.3005,1.246
31.5220,-0.2851,1.1747,-0.3005,1.246
31.5410,0.6583,1.0139,-0.8610,1.484
31.5540,1.4443,0.7451,-0.6465,1.749
31.5550,1.4443,0.7451,-0.6465,1.749
31.5710,1.7770,0.7762,-0.4822,1.998
31.5880,1.5605,1.2694,-1.1962,2.340
31.5880,1.5605,1.2694,-1.1962,2.340
31.6040,0.7505,1.8693,-1.8892,2.762
31.6240,-0.8348,1.2208,-1.3476,2.001
31.6240,-0.8348,1.2208,-1.3476,2.001
31.6530,-1.1084,1.5824,-0.9660,2.160
31.6530,-1.1084,1.5824,-0.9660,2.160
31.6540,-1.1084,1.5824,-0.9660,2.160
31.6710,-1.1271,1.7807,-0.6596,2.208
31.6710,-1.1872,1.8176,-0.5468,2.239
31.6880,-1.2687,1.9111,0.0427,2.294
31.7040,-0.8356,1.7520,0.7637,2.086
31.7040,-0.8356,1.7520,0.7637,2.086
31.7240,0.1491,0.7333,2.3239,2.441
31.7240,0.1491,0.7333,2.3239,2.441
31.7480,0.7221,0.0371,2.0807,2.203
31.7490,0.8128,0.0308,1.7598,1.939
31.7550,0.8872,0.0438,1.4347,1.687
31.7720,0.8418,0.2816,0.8335,1.218
31.7880,0.4561,1.3329,1.5712,2.110
31.7890,0.4561,1.3329,1.5712,2.110
31.8040,-1.4765,1.7228,2.3262,3.250
31.8230,-5.2394,0.3867,3.4895,6.307
31.8230,-5.2394,0.3867,3.4895,6.307
31.8400,-7.4805,-0.3671,2.7492,7.978
31.8400,-7.9664,-0.3680,2.2528,8.287
31.8550,-8.9387,-0.1887,1.0797,9.006
31.8720,-9.4372,0.2867,1.6271,9.581
31.8720,-9.4372,0.2867,1.6271,9.581
31.8890,-10.0362,-1.0120,1.8492,10.255
31.9050,-9.8333,-3.2999,1.5376,10.486
31.9050,-9.8333,-3.2999,1.5376,10.486
31.9210,-8.3997,-5.3454,3.0348,10.409
31.9400,-6.1244,-5.2384,4.4579,9.210
31.9400,-6.1244,-5.2384,4.4579,9.210
31.9550,-3.6885,-3.9640,4.8993,7.302
31.9550,-3.6885,-3.9640,4.8993,7.302
31.9720,-2.0466,-1.6987,3.5292,4.419
31.9890,-1.8274,-1.1532,2.3048,3.159
31.9890,-1.8274,-1.1532,2.3048,3.159
32.0060,-2.8947,-3.9509,-2.3776,5.444
32.0260,-2.5234,-4.8610,-4.9215,7.363
32.0260,-2.5234,-4.8610,-4.9215,7.363
32.0480,-0.2975,-8.1395,-5.6553,9.916
32.0490,-0.2975,-8.1395,-5.6553,9.916
32.0540,0.6028,-8.9557,-5.6325,10.597
32.0720,4.6396,-9.3070,-0.5273,10.413
32.0720,4.6396,-9.3070,-0.5273,10.413
32.0890,1.6942,-5.1641,2.2569,5.885
32.1060,0.7974,-1.7011,-0.4264,1.927
32.1060,0.7974,-1.7011,-0.4264,1.927
32.1220,0.3906,-0.8757,-3.0719,3.218
32.1430,0.3746,0.9982,-5.7278,5.826
32.1440,0.3746,0.9982,-5.7278,5.826
32.1790,3.6841,3.2285,-5.5701,7.418
32.1800,3.6841,3.2285,-5.5701,7.418
32.1800,3.6841,3.2285,-5.5701,7.418
32.1880,4.1130,3.5399,-5.3610,7.628
32.2050,4.6661,3.9603,-5.3581,8.134
32.2050,4.6661,3.9603,-5.3581,8.134
32.2220,5.4575,4.4433,-5.2114,8.757
32.2400,6.5406,4.8393,-4.4424,9.270
32.2400,6.5406,4.8393,-4.4424,9.270
32.2580,7.4702,4.9773,-4.2302,9.923
32.2580,7.4702,4.9773,-4.2302,9.923
32.2720,8.1836,4.4035,-4.4759,10.315
32.2900,7.6669,3.6076,-4.4184,9.556
32.2900,7.6669,3.6076,-4.4184,9.556
32.3060,5.9273,3.9984,-4.5334,8.466
32.3260,5.0214,5.2543,-2.6509,7.736
32.3270,5.0214,5.2543,-2.6509,7.736
32.3500,3.9895,5.4015,-0.0538,6.715
32.3510,3.4176,5.2792,0.9937,6.367
32.3510,3.4176,5.2792,0.9937,6.367
32.3590,2.6629,5.0459,2.4564,6.212
32.3720,-1.1304,2.4175,11.6453,11.947
32.3900,-17.6597,-13.2051,20.3733,30.022
32.4050,-20.9665,-19.1570,-2.7719,28.535
32.4050,-20.9665,-19.1570,-2.7719,28.535
32.4230,-9.6802,-12.9106,0.3616,16.141
32.4420,-0.1161,-2.5654,2.9729,3.928
32.4430,-0.1161,-2.5654,2.9729,3.928
32.4620,4.0628,1.6850,5.9522,7.401
32.4620,4.0628,1.6850,5.9522,7.401
32.4720,4.9198,2.1578,2.2542,5.826
32.4890,4.0766,3.1784,-0.9617,5.258
32.4890,2.5616,3.2356,-0.3606,4.143
32.5070,-3.4197,1.3019,-3.4031,4.997
32.5070,-3.4197,1.3019,-3.4031,4.997
32.5260,-4.6318,-4.4027,-7.8586,10.129
32.5270,-4.2396,-5.7384,-3.0903,7.775
32.5560,11.9120,-1.4976,-5.0892,13.040
32.5560,11.9120,-1.4976,-5.0892,13.040
32.5740,9.4916,3.0372,-4.5556,10.958
32.5740,9.4916,3.0372,-4.5556,10.958
32.5900,7.6684,4.7805,-5.3338,10.493
32.5910,7.2825,5.1021,-5.4801,10.445
32.6070,6.3222,5.1685,-5.6615,9.937
32.6270,2.9271,1.2857,-5.7106,6.545
32.6280,2.9271,1.2857,-5.7106,6.545
32.6540,-2.3139,-7.9321,-1.5273,8.403
32.6540,-3.2966,-9.0440,0.0536,9.626
32.6550,-3.2966,-9.0440,0.0536,9.626
32.6740,-4.5020,-6.3257,3.0540,8.343
32.6910,-2.8372,-0.3744,1.2092,3.107
32.6910,-2.8372,-0.3744,1.2092,3.107
32.7080,-2.2013,1.9796,-5.5226,6.266
32.7090,-2.2013,1.9796,-5.5226,6.266
32.7240,-1.3147,1.3229,-5.0659,5.398
32.7450,-0.2753,1.3831,-1.7729,2.265
32.7450,-0.2753,1.3831,-1.7729,2.265
32.7720,0.4473,2.7235,0.5225,2.809
32.7720,0.4473,2.7235,0.5225,2.809
32.7730,0.4473,2.7235,0.5225,2.809
32.7910,0.5920,3.5372,0.2388,3.594
32.7910,0.5920,3.5372,0.2388,3.594
32.8240,0.5920,3.5372,0.2388,3.594
32.8240,0.5920,3.5372,0.2388,3.594
32.8240,0.5920,3.5372,0.2388,3.594
32.8420,0.1079,0.7372,0.1951,0.770
32.8750,1.0034,1.2088,2.9005,3.299
32.8830,0.7954,1.2078,2.7999,3.151
32.8830,0.7954,1.2078,2.7999,3.151
32.8950,0.2155,1.2571,1.5565,2.012
32.8960,0.2155,1.2571,1.5565,2.012
32.9050,-0.1979,1.3673,0.5950,1.504
32.9220,-1.0637,1.9950,-0.3341,2.285
32.9230,-1.0637,1.9950,-0.3341,2.285
32.9410,-2.0508,2.3298,0.1829,3.109
32.9420,-2.5874,2.2744,0.4988,3.481
32.9570,-4.7851,1.4402,2.0069,5.385
32.9720,-6.9495,0.2772,3.2509,7.677
32.9720,-6.9495,0.2772,3.2509,7.677
32.9900,-8.8931,-0.7970,1.7549,9.100
33.0070,-9.3492,-0.1973,1.1325,9.420
33.0080,-9.3492,-0.1973,1.1325,9.420
33.0220,-10.2167,-0.7250,1.8379,10.406
33.0400,-10.7959,-4.3101,0.6270,11.641
33.0420,-10.7959,-4.3101,0.6270,11.641
33.0550,-9.1359,-5.4729,1.7146,10.787
33.0560,-9.1359,-5.4729,1.7146,10.787
33.0720,-6.1448,-6.0196,4.8587,9.879
33.0890,-4.5860,-6.2724,6.6229,10.210
33.0890,-4.5860,-6.2724,6.6229,10.210
33.1060,-2.4957,-5.1662,4.3441,7.196
33.1230,-0.3185,-3.9918,3.2309,5.145
33.1240,0.3473,-3.6893,2.4948,4.467
33.1430,0.5849,-4.0987,-1.3784,4.364
33.1430,0.5849,-4.0987,-1.3784,4.364
33.1660,0.3971,-6.1092,-5.5111,8.237
33.1660,0.3971,-6.1092,-5.5111,8.237
33.1720,1.2401,-6.9615,-6.4954,9.602
33.1900,3.5636,-8.2767,-6.9253,11.365
33.2070,5.1365,-7.3585,0.4160,8.984
33.2080,5.1365,-7.3585,0.4160,8.984
33.2240,1.0496,-4.6130,4.7327,6.692
33.2250,1.0496,-4.6130,4.7327,6.692
33.2440,-0.4001,-2.4197,-0.2550,2.466
33.2710,0.3451,-0.3112,-5.5425,5.562
33.2710,0.3451,-0.3112,-5.5425,5.562
33.2710,0.3451,-0.3112,-5.5425,5.562
33.2900,2.8643,0.9697,-5.0001,5.843
33.2900,2.8643,0.9697,-5.0001,5.843
33.3070,4.1404,1.5727,-5.2755,6.888
33.3240,4.9458,2.4012,-5.4222,7.722
33.3250,4.9458,2.4012,-5.4222,7.722
33.3450,5.6129,3.6675,-5.5886,8.729
33.3460,5.8235,3.9969,-5.4877,8.944
33.3740,6.6566,5.4412,-4.9640,9.928
33.3740,6.6566,5.4412,-4.9640,9.928
33.3750,6.8757,5.6910,-4.8473,10.157
33.3910,7.4084,6.2878,-4.8906,10.878
33.4070,7.7200,6.3183,-4.8131,11.076
33.4080,7.7200,6.3183,-4.8131,11.076
33.4250,7.4367,6.1158,-4.5306,10.641
33.4260,7.4367,6.1158,-4.5306,10.641
33.4440,7.2348,6.7059,-3.5509,10.484
33.4680,5.2904,7.4158,-1.9193,9.309
33.4690,5.2904,7.4158,-1.9193,9.309
33.4690,5.2904,7.4158,-1.9193,9.309
33.4780,4.0053,6.9355,-1.4410,8.138
33.4900,0.8595,4.3339,1.1300,4.560
33.5080,-7.0348,-5.5917,22.2936,24.037
33.5250,-25.5796,-22.8206,2.6190,34.380
33.5250,-25.5796,-22.8206,2.6190,34.380
33.5440,-23.8124,-23.6003,-2.2995,33.605
33.5450,-18.6479,-18.1540,-0.9878,26.044
33.5680,1.6589,1.6933,3.2849,4.051
33.5690,1.6589,1.6933,3.2849,4.051
33.5740,2.6257,3.6376,4.6224,6.442
33.5900,4.1194,7.1901,3.0300,8.823
33.6070,5.4911,6.9812,-10.6709,13.884
33.6080,5.4911,6.9812,-10.6709,13.884
33.6230,7.8570,5.5871,-8.5860,12.910
33.6420,6.9284,-5.9682,13.2777,16.122
33.6420,6.9284,-5.9682,13.2777,16.122
33.6610,-1.1484,-25.3338,2.1434,25.450
33.6730,0.4132,-19.4031,-6.1866,20.370
33.6740,2.2505,-13.7908,-6.6584,15.479
33.6900,6.9224,0.8880,-5.7536,9.045
33.7070,6.9986,7.2224,-6.1417,11.784
33.7070,6.9986,7.2224,-6.1417,11.784
33.7240,6.1925,8.3123,-8.3276,13.296
33.7440,4.5090,7.8854,-7.3699,11.697
33.7440,4.5090,7.8854,-7.3699,11.697
33.7650,-1.3929,3.1792,-4.5320,5.708
33.7660,-3.0360,1.0618,-3.7737,4.958
33.7730,-4.5025,-1.3673,-3.4875,5.857
33.7900,-9.6024,-9.5372,4.1257,14.149
33.7910,-9.6024,-9.5372,4.1257,14.149
33.8070,-6.8890,-6.1586,7.1535,11.686
33.8240,-0.3163,2.6771,-0.0456,2.696
33.8240,-0.3163,2.6771,-0.0456,2.696
33.8430,0.6526,2.6234,-5.2107,5.870
33.8430,0.6526,2.6234,-5.2107,5.870
33.8640,1.4951,1.9590,-2.5041,3.513
33.8640,1.4951,1.9590,-2.5041,3.513
33.8740,1.9459,1.8403,-1.2887,2.972
33.8910,2.2689,2.0728,0.1563,3.077
33.9070,2.1921,2.2882,0.1343,3.172
33.9070,2.1921,2.2882,0.1343,3.172
33.9230,0.9283,1.3299,0.2965,1.649
33.9230,0.9283,1.3299,0.2965,1.649
33.9420,-0.2111,0.4486,1.5740,1.650
33.9580,-0.2919,-0.3212,2.4274,2.466
33.9590,-0.2919,-0.3212,2.4274,2.466
33.9740,0.7859,0.8041,2.3847,2.637
33.9920,1.0947,1.6691,2.1937,2.966
33.9930,1.0947,1.6691,2.1937,2.966
34.0080,0.3088,1.2629,1.5786,2.045
34.0080,0.3088,1.2629,1.5786,2.045
34.0250,-0.4356,1.3057,0.3297,1.415
34.0450,-1.2367,1.6188,0.1100,2.040
34.0450,-1.2367,1.6188,0.1100,2.040
34.0700,-3.3148,1.2229,1.6387,3.895
34.0710,-3.3148,1.2229,1.6387,3.895
34.0710,-3.3148,1.2229,1.6387,3.895
34.0820,-4.1904,1.1576,2.4698,5.000
34.0920,-5.1407,0.9270,2.8818,5.966
34.1090,-6.7280,0.7422,1.6438,6.966
34.1250,-8.1214,0.7755,2.6873,8.590
34.1260,-8.1214,0.7755,2.6873,8.590
34.1480,-7.1763,-1.9277,2.4321,7.819
34.1480,-7.1763,-1.9277,2.4321,7.819
34.1760,-6.5782,-5.3578,3.9370,9.353
34.1760,-6.5782,-5.3578,3.9370,9.353
34.1930,-6.3372,-7.3029,5.8152,11.283
34.1940,-6.3372,-7.3029,5.8152,11.283
34.2080,-5.2228,-6.7688,4.7134,9.763
34.2090,-5.2228,-6.7688,4.7134,9.763
34.2240,-2.6720,-4.2438,3.2445,5.973
34.2420,-1.4115,-2.3525,0.5313,2.794
34.2420,-1.4115,-2.3525,0.5313,2.794
34.2570,-2.0273,-3.4396,-2.1113,4.516
34.2790,-2.4757,-6.1235,-4.5167,8.002
34.2800,-2.4757,-6.1235,-4.5167,8.002
34.2910,-1.7144,-7.7041,-5.1246,9.410
34.2910,-1.7144,-7.7041,-5.1246,9.410
34.3090,2.3611,-10.7059,-4.0686,11.694
34.3250,4.4658,-8.8911,-0.2410,9.953
34.3260,4.4658,-8.8911,-0.2410,9.953
34.3450,1.6893,-3.1482,-0.9276,3.691
34.3460,1.6893,-3.1482,-0.9276,3.691
34.3660,0.3139,-0.4710,-0.8621,1.031
34.3670,0.3139,-0.4710,-0.8621,1.031
34.3760,-0.3557,-0.5056,-1.1995,1.349
34.3930,-0.7551,-0.1599,-5.1033,5.161
34.4090,2.0464,1.0804,-5.1012,5.602
34.4090,2.9017,1.5388,-5.0017,5.984
34.4260,3.8275,2.2430,-5.5790,7.128
34.4460,4.5781,2.9551,-4.3491,6.972
34.4460,4.5781,2.9551,-4.3491,6.972
34.4760,5.8530,4.0707,-4.3472,8.350
34.4760,6.0426,4.2328,-4.2748,8.527
34.4770,6.0426,4.2328,-4.2748,8.527
34.4920,6.2553,4.7571,-4.5411,9.076
34.4920,6.2553,4.7571,-4.5411,9.076
34.5090,6.6599,5.2831,-4.2532,9.506
34.5270,7.2453,5.8237,-4.3294,10.254
34.5280,7.2453,5.8237,-4.3294,10.254
34.5490,6.9174,5.8629,-4.2786,10.027
34.5490,6.8402,5.9011,-4.2697,9.992
34.5760,6.4765,6.5776,-3.8429,9.999
34.5760,6.4765,6.5776,-3.8429,9.999
34.5920,5.2487,6.8825,-2.9916,9.158
34.5920,4.7337,6.8531,-2.7656,8.776
34.6090,2.7362,5.7412,-2.5063,6.836
34.6100,2.7362,5.7412,-2.5063,6.836
34.6260,-1.7202,-1.0685,6.7851,7.081
34.6460,-20.2700,-20.0776,20.8545,35.340
34.6480,-20.2700,-20.0776,20.8545,35.340
34.6770,-21.5734,-16.6362,-1.6932,27.296
34.6770,-15.9562,-10.3665,-1.1361,19.062
34.6780,-15.9562,-10.3665,-1.1361,19.062
34.6920,-1.1194,0.3673,1.5072,1.913
34.7090,1.8608,6.5409,0.7485,6.841
34.7100,1.8608,6.5409,0.7485,6.841
34.7270,2.9389,9.2349,-3.3531,10.255
34.7280,3.9125,10.0102,-4.4104,11.617
34.7480,9.0813,10.1130,-7.1725,15.368
34.7490,9.0813,10.1130,-7.1725,15.368
34.7790,-5.2947,-20.4174,18.8939,28.318
